sub,trial,coh,dir,resp,rt,trialType,prob
0,1,1,1,0,0,1,0.75
0,2,1,1,0,0,1,0.75
0,3,1,1,0,0,1,0.75
0,4,1,2,0,0,1,0.75
0,5,1,1,0,0,1,0.75
0,6,1,1,0,0,1,0.75
0,7,1,1,0,0,1,0.75
0,8,1,2,0,0,1,0.75
0,9,1,2,0,0,1,0.75
0,10,1,1,0,0,1,0.75
0,11,1,1,0,0,1,0.75
0,12,1,1,0,0,1,0.75
0,13,1,1,0,0,1,0.75
0,14,1,1,0,0,1,0.75
0,15,1,1,0,0,1,0.75
0,16,1,1,0,0,1,0.75
0,17,1,1,0,0,1,0.75
0,18,1,1,0,0,1,0.75
0,19,1,2,0,0,1,0.75
0,20,1,1,0,0,1,0.75
0,21,1,1,0,0,1,0.75
0,22,1,1,0,0,1,0.75
0,23,1,1,0,0,1,0.75
0,24,1,1,0,0,1,0.75
0,25,1,2,0,0,1,0.75
0,26,1,1,0,0,1,0.75
0,27,1,2,0,0,1,0.75
0,28,1,1,0,0,1,0.75
0,29,1,1,0,0,1,0.75
0,30,1,1,0,0,1,0.75
0,31,1,1,0,0,1,0.75
0,32,1,1,0,0,1,0.75
0,33,1,1,0,0,1,0.75
0,34,1,1,0,0,1,0.75
0,35,1,1,0,0,1,0.75
0,36,1,1,0,0,1,0.75
0,37,1,2,0,0,1,0.75
0,38,1,1,0,0,1,0.75
0,39,1,1,0,0,1,0.75
0,40,1,1,0,0,1,0.75
0,41,1,1,0,0,1,0.75
0,42,1,1,0,0,1,0.75
0,43,1,1,0,0,1,0.75
0,44,1,1,0,0,1,0.75
0,45,1,2,0,0,1,0.75
0,46,1,1,0,0,1,0.75
0,47,1,1,0,0,1,0.75
0,48,1,1,0,0,1,0.75
0,49,1,1,0,0,1,0.75
0,50,1,1,0,0,1,0.75
0,51,1,2,0,0,1,0.75
0,52,1,1,0,0,1,0.75
0,53,1,1,0,0,1,0.75
0,54,0.1,2,1,0.532068025437184,0,0.75
0,55,1,1,0,0,1,0.75
0,56,1,1,0,0,1,0.75
0,57,0.15,2,2,0.368195866409224,0,0.75
0,58,1,1,0,0,1,0.75
0,59,1,1,0,0,1,0.75
0,60,0.1,1,2,4.02098591485992,0,0.75
0,61,1,1,0,0,1,0.75
0,62,1,1,0,0,1,0.75
0,63,1,1,0,0,1,0.75
0,64,0.05,2,1,0.758725979132578,0,0.75
0,65,1,2,0,0,1,0.75
0,66,0,1,2,0.964235371269751,0,0.75
0,67,1,1,0,0,1,0.75
0,68,1,1,0,0,1,0.75
0,69,0.1,2,2,0.341908054251689,0,0.75
0,70,1,1,0,0,1,0.75
0,71,1,2,0,0,1,0.75
0,72,1,1,0,0,1,0.75
0,73,1,1,0,0,1,0.75
0,74,1,2,0,0,1,0.75
0,75,1,2,0,0,1,0.75
0,76,0.15,1,1,0.410787485889159,0,0.75
0,77,1,1,0,0,1,0.75
0,78,0.1,1,2,0.503992382902652,0,0.75
0,79,1,1,0,0,1,0.75
0,80,1,1,0,0,1,0.75
0,81,0.1,2,2,9.41883544967277,0,0.75
0,82,1,1,0,0,1,0.75
0,83,0,1,1,0.687818757025525,0,0.75
0,84,1,1,0,0,1,0.75
0,85,1,1,0,0,1,0.75
0,86,1,1,0,0,1,0.75
0,87,1,2,0,0,1,0.75
0,88,0.1,2,1,0.507344765414018,0,0.75
0,89,1,1,0,0,1,0.75
0,90,0.05,2,2,0.644567247538362,0,0.75
0,91,1,1,0,0,1,0.75
0,92,0.15,2,2,0.439614447124768,0,0.75
0,93,1,1,0,0,1,0.75
0,94,1,1,0,0,1,0.75
0,95,0.05,2,2,0.381885456910823,0,0.75
0,96,1,1,0,0,1,0.75
0,97,1,2,0,0,1,0.75
0,98,1,1,0,0,1,0.75
0,99,0.15,1,1,0.401213787088636,0,0.75
0,100,1,2,0,0,1,0.75
0,101,0.05,2,1,1.4977579137194,0,0.75
0,102,1,1,0,0,1,0.75
0,103,1,1,0,0,1,0.75
0,104,1,1,0,0,1,0.75
0,105,0,2,2,0.354933584341779,0,0.75
0,106,1,1,0,0,1,0.75
0,107,1,1,0,0,1,0.75
0,108,0.05,2,2,0.468928706890438,0,0.75
0,109,1,2,0,0,1,0.75
0,110,0,1,1,3.69884953927249,0,0.75
0,111,1,1,0,0,1,0.75
0,112,1,2,0,0,1,0.75
0,113,0.05,1,2,0.689808051218279,0,0.75
0,114,1,1,0,0,1,0.75
0,115,1,1,0,0,1,0.75
0,116,0,2,1,0.626479780185036,0,0.75
0,117,1,1,0,0,1,0.75
0,118,1,1,0,0,1,0.75
0,119,1,1,0,0,1,0.75
0,120,0.15,2,2,0.42682791466359,0,0.75
0,121,1,2,0,0,1,0.75
0,122,1,1,0,0,1,0.75
0,123,0,2,2,0.426090069697239,0,0.75
0,124,1,2,0,0,1,0.75
0,125,1,1,0,0,1,0.75
0,126,0.05,1,2,0.438204521662556,0,0.75
0,127,1,1,0,0,1,0.75
0,128,0.1,2,2,0.997477211814839,0,0.75
0,129,1,2,0,0,1,0.75
0,130,1,1,0,0,1,0.75
0,131,0.1,2,2,0.355024050571956,0,0.75
0,132,1,2,0,0,1,0.75
0,133,1,2,0,0,1,0.75
0,134,1,1,0,0,1,0.75
0,135,0.1,1,2,0.327259265235625,0,0.75
0,136,1,1,0,0,1,0.75
0,137,1,2,0,0,1,0.75
0,138,0.15,2,1,1.43011357035721,0,0.75
0,139,1,2,0,0,1,0.75
0,140,1,2,0,0,1,0.75
0,141,0.1,1,2,1.42271234374493,0,0.75
0,142,1,2,0,0,1,0.75
0,143,1,1,0,0,1,0.75
0,144,1,2,0,0,1,0.75
0,145,0.05,1,2,0.364943894906901,0,0.75
0,146,1,1,0,0,1,0.75
0,147,1,1,0,0,1,0.75
0,148,0.15,2,1,0.860288093157578,0,0.75
0,149,1,1,0,0,1,0.75
0,150,0.15,2,2,0.439480031025596,0,0.75
0,151,1,1,0,0,1,0.75
0,152,0.15,1,2,0.388511304743588,0,0.75
0,153,1,2,0,0,1,0.75
0,154,1,2,0,0,1,0.75
0,155,1,1,0,0,1,0.75
0,156,0.05,1,1,1.5115119855036,0,0.75
0,157,1,1,0,0,1,0.75
0,158,1,2,0,0,1,0.75
0,159,1,2,0,0,1,0.75
0,160,0.15,2,1,1.28428011672804,0,0.75
0,161,1,1,0,0,1,0.75
0,162,1,2,0,0,1,0.75
0,163,0.15,1,2,0.346716878644656,0,0.75
0,164,1,1,0,0,1,0.75
0,165,1,1,0,0,1,0.75
0,166,1,1,0,0,1,0.75
0,167,1,1,0,0,1,0.75
0,168,0.15,1,2,1.28026752336882,0,0.75
0,169,1,2,0,0,1,0.75
0,170,1,1,0,0,1,0.75
0,171,1,1,0,0,1,0.75
0,172,0.05,2,1,0.368644026981201,0,0.75
0,173,1,1,0,0,1,0.75
0,174,0.05,1,2,0.563709384063259,0,0.75
0,175,1,1,0,0,1,0.75
0,176,0.15,1,1,0.554854282003362,0,0.75
0,177,1,2,0,0,1,0.75
0,178,1,2,0,0,1,0.75
0,179,1,1,0,0,1,0.75
0,180,1,1,0,0,1,0.75
0,181,0.1,2,2,2.88191112107597,0,0.75
0,182,1,2,0,0,1,0.75
0,183,1,1,0,0,1,0.75
0,184,1,1,0,0,1,0.75
0,185,1,1,0,0,1,0.75
0,186,1,2,0,0,1,0.75
0,187,1,1,0,0,1,0.75
0,188,1,1,0,0,1,0.75
0,189,0.15,2,2,0.43197037326172,0,0.75
0,190,1,1,0,0,1,0.75
0,191,1,1,0,0,1,0.75
0,192,1,2,0,0,1,0.75
0,193,1,2,0,0,1,0.75
0,194,1,1,0,0,1,0.75
0,195,1,1,0,0,1,0.75
0,196,0,2,2,4.54316136415582,0,0.75
0,197,1,1,0,0,1,0.75
0,198,1,1,0,0,1,0.75
0,199,0.05,2,2,0.481806026364211,0,0.75
0,200,1,1,0,0,1,0.75
0,201,1,1,0,0,1,0.75
0,202,1,1,0,0,1,0.75
0,203,0.15,1,1,0.891189361165743,0,0.75
0,204,1,1,0,0,1,0.75
0,205,1,1,0,0,1,0.75
0,206,1,1,0,0,1,0.75
0,207,0,1,1,0.601811698114034,0,0.75
0,208,1,1,0,0,1,0.75
0,209,0.1,1,2,0.693625596933998,0,0.75
0,210,1,1,0,0,1,0.75
0,211,1,1,0,0,1,0.75
0,212,0,1,1,1.48974652140168,0,0.75
0,213,1,1,0,0,1,0.75
0,214,1,1,0,0,1,0.75
0,215,1,1,0,0,1,0.75
0,216,0.15,1,2,0.505062258103862,0,0.75
0,217,1,1,0,0,1,0.75
0,218,1,1,0,0,1,0.75
0,219,1,1,0,0,1,0.75
0,220,0.05,2,2,0.623484450450633,0,0.75
0,221,1,1,0,0,1,0.75
0,222,1,1,0,0,1,0.75
0,223,1,1,0,0,1,0.75
0,224,0.1,2,2,0.404490139510017,0,0.75
0,225,1,1,0,0,1,0.75
0,226,0.15,2,2,0.649022547877394,0,0.75
0,227,1,1,0,0,1,0.75
0,228,1,2,0,0,1,0.75
0,229,1,1,0,0,1,0.75
0,230,1,1,0,0,1,0.75
0,231,0,2,1,3.27598770172335,0,0.75
0,232,1,1,0,0,1,0.75
0,233,1,1,0,0,1,0.75
0,234,0.1,1,1,0.809835858352017,0,0.75
0,235,1,1,0,0,1,0.75
0,236,0,2,2,3.69429863983532,0,0.75
0,237,1,1,0,0,1,0.75
0,238,0.1,2,1,2.30212088720873,0,0.75
0,239,1,1,0,0,1,0.75
0,240,1,1,0,0,1,0.75
0,241,1,1,0,0,1,0.75
0,242,0.15,1,1,1.52350260782987,0,0.75
0,243,1,1,0,0,1,0.75
0,244,1,1,0,0,1,0.75
0,245,1,2,0,0,1,0.75
0,246,0.15,1,1,0.484950849902816,0,0.75
0,247,1,1,0,0,1,0.75
0,248,1,1,0,0,1,0.75
0,249,0.15,1,2,0.350891477137338,0,0.75
0,250,1,1,0,0,1,0.75
0,251,0.05,1,1,0.34240048553329,0,0.75
0,252,1,1,0,0,1,0.75
0,253,1,1,0,0,1,0.75
0,254,1,2,0,0,1,0.75
0,255,0.1,1,1,0.298776845564134,0,0.75
0,256,1,2,0,0,1,0.75
0,257,1,1,0,0,1,0.75
0,258,1,2,0,0,1,0.75
0,259,0,2,1,0.433873050846159,0,0.75
0,260,1,1,0,0,1,0.75
0,261,0.05,2,1,0.726153331866954,0,0.75
0,262,1,2,0,0,1,0.75
0,263,0.1,2,2,0.307530574093107,0,0.75
0,264,1,2,0,0,1,0.75
0,265,1,1,0,0,1,0.75
0,266,1,2,0,0,1,0.75
0,267,1,2,0,0,1,0.75
0,268,1,2,0,0,1,0.75
0,269,1,1,0,0,1,0.75
0,270,1,2,0,0,1,0.75
0,271,1,2,0,0,1,0.75
0,272,1,1,0,0,1,0.75
0,273,1,2,0,0,1,0.75
0,274,1,1,0,0,1,0.75
0,275,1,2,0,0,1,0.75
0,276,1,1,0,0,1,0.75
0,277,1,2,0,0,1,0.75
0,278,0.05,1,1,0.526702930161264,0,0.75
0,279,1,2,0,0,1,0.75
0,280,0.15,1,1,0.598044518381357,0,0.75
0,281,1,1,0,0,1,0.75
0,282,0.05,1,2,0.603782064979896,0,0.75
0,283,1,2,0,0,1,0.75
0,284,0.1,1,1,0.529241758456919,0,0.75
0,285,1,1,0,0,1,0.75
0,286,0.05,1,2,0.553490872844122,0,0.75
0,287,1,1,0,0,1,0.75
0,288,0.1,1,2,0.404579964117147,0,0.75
0,289,1,2,0,0,1,0.75
0,290,1,2,0,0,1,0.75
0,291,1,1,0,0,1,0.75
0,292,1,1,0,0,1,0.75
0,293,1,1,0,0,1,0.75
0,294,1,2,0,0,1,0.75
0,295,0.05,2,1,0.635688726964872,0,0.75
0,296,1,1,0,0,1,0.75
0,297,1,2,0,0,1,0.75
0,298,0.1,1,2,0.346338973671664,0,0.75
0,299,1,1,0,0,1,0.75
0,300,0.05,2,2,1.48142298852326,0,0.75
0,301,1,1,0,0,1,0.75
0,302,1,1,0,0,1,0.75
0,303,0.05,2,1,1.40179636375979,0,0.75
0,304,1,1,0,0,1,0.75
0,305,1,2,0,0,1,0.75
0,306,1,1,0,0,1,0.75
0,307,1,1,0,0,1,0.75
0,308,0,2,2,0.415518034540582,0,0.75
0,309,1,1,0,0,1,0.75
0,310,0.15,1,1,0.347348538110964,0,0.75
0,311,1,2,0,0,1,0.75
0,312,1,1,0,0,1,0.75
0,313,0.1,2,2,0.422357536561321,0,0.75
0,314,1,1,0,0,1,0.75
0,315,1,1,0,0,1,0.75
0,316,1,1,0,0,1,0.75
0,317,1,1,0,0,1,0.75
0,318,0.15,1,1,1.73028077243362,0,0.75
0,319,1,1,0,0,1,0.75
0,320,1,1,0,0,1,0.75
0,321,0.15,1,2,0.324451283959206,0,0.75
0,322,1,1,0,0,1,0.75
0,323,1,1,0,0,1,0.75
0,324,0.1,1,2,0.447660486097448,0,0.75
0,325,1,1,0,0,1,0.75
0,326,0,1,2,1.93082575115841,0,0.75
0,327,1,2,0,0,1,0.75
0,328,1,2,0,0,1,0.75
0,329,1,2,0,0,1,0.75
0,330,0.15,2,1,4.45564589340938,0,0.75
0,331,1,2,0,0,1,0.75
0,332,1,1,0,0,1,0.75
0,333,1,1,0,0,1,0.75
0,334,1,1,0,0,1,0.75
0,335,0.05,1,2,0.587175420369022,0,0.75
0,336,1,1,0,0,1,0.75
0,337,0.15,2,2,0.597077620623168,0,0.75
0,338,1,2,0,0,1,0.75
0,339,0,1,2,0.410964889451861,0,0.75
0,340,1,1,0,0,1,0.75
0,341,1,2,0,0,1,0.75
0,342,0.1,1,2,0.60300668614218,0,0.75
0,343,1,1,0,0,1,0.75
0,344,0,2,1,5.10123521659989,0,0.75
0,345,1,2,0,0,1,0.75
0,346,1,2,0,0,1,0.75
0,347,0.05,1,2,0.393169352144469,0,0.75
0,348,1,1,0,0,1,0.75
0,349,1,1,0,0,1,0.75
0,350,0.1,2,2,13.5418207319453,0,0.75
0,351,1,1,0,0,1,0.75
0,352,1,1,0,0,1,0.75
0,353,1,1,0,0,1,0.75
0,354,0.05,1,1,1.03177545388462,0,0.75
0,355,1,1,0,0,1,0.75
0,356,0.05,2,2,0.424769968783949,0,0.75
0,357,1,1,0,0,1,0.75
0,358,1,1,0,0,1,0.75
0,359,0.15,2,1,0.567173085000832,0,0.75
0,360,1,1,0,0,1,0.75
0,361,1,1,0,0,1,0.75
0,362,1,1,0,0,1,0.75
0,363,1,1,0,0,1,0.75
0,364,0.1,1,2,0.338732433679979,0,0.75
0,365,1,2,0,0,1,0.75
0,366,1,1,0,0,1,0.75
0,367,0.15,1,2,0.330510595114902,0,0.75
0,368,1,1,0,0,1,0.75
0,369,1,1,0,0,1,0.75
0,370,1,1,0,0,1,0.75
0,371,1,1,0,0,1,0.75
0,372,1,1,0,0,1,0.75
0,373,1,1,0,0,1,0.75
0,374,0.1,1,2,3.64690878248075,0,0.75
0,375,1,1,0,0,1,0.75
0,376,1,1,0,0,1,0.75
0,377,1,1,0,0,1,0.75
0,378,1,1,0,0,1,0.75
0,379,0.05,2,2,0.575938041554764,0,0.75
0,380,1,1,0,0,1,0.75
0,381,0.1,2,1,0.389554874156602,0,0.75
0,382,1,1,0,0,1,0.75
0,383,1,1,0,0,1,0.75
0,384,0.15,1,2,0.366527053527534,0,0.75
0,385,1,2,0,0,1,0.75
0,386,1,1,0,0,1,0.75
0,387,1,1,0,0,1,0.75
0,388,0.05,1,1,2.62455208000029,0,0.75
0,389,1,1,0,0,1,0.75
0,390,1,1,0,0,1,0.75
0,391,1,2,0,0,1,0.75
0,392,0.15,2,2,0.649659660994075,0,0.75
0,393,1,1,0,0,1,0.75
0,394,1,1,0,0,1,0.75
0,395,0.15,2,2,0.487763322424144,0,0.75
0,396,1,1,0,0,1,0.75
0,397,1,1,0,0,1,0.75
0,398,0.15,2,2,0.460498026106507,0,0.75
0,399,1,1,0,0,1,0.75
0,400,0.1,2,2,0.998480360140093,0,0.75
0,401,1,1,0,0,1,0.75
0,402,0.1,2,2,0.48645252478309,0,0.75
0,403,1,1,0,0,1,0.75
0,404,1,1,0,0,1,0.75
0,405,0.05,1,1,1.47319184674416,0,0.75
0,406,1,2,0,0,1,0.75
0,407,0.05,1,1,0.81965689570643,0,0.75
0,408,1,1,0,0,1,0.75
0,409,1,1,0,0,1,0.75
0,410,0.1,1,2,0.378753465425689,0,0.75
0,411,1,1,0,0,1,0.75
0,412,1,2,0,0,1,0.75
0,413,1,1,0,0,1,0.75
0,414,1,1,0,0,1,0.75
0,415,1,1,0,0,1,0.75
0,416,1,1,0,0,1,0.75
0,417,1,1,0,0,1,0.75
0,418,0.05,2,2,0.445289758150466,0,0.75
0,419,1,1,0,0,1,0.75
0,420,0.1,1,1,1.06476353993639,0,0.75
0,421,1,1,0,0,1,0.75
0,422,1,1,0,0,1,0.75
0,423,1,2,0,0,1,0.75
0,424,0.15,2,2,0.448835263610817,0,0.75
0,425,1,1,0,0,1,0.75
0,426,1,1,0,0,1,0.75
0,427,0.15,1,2,0.998173673287965,0,0.75
0,428,1,1,0,0,1,0.75
0,429,1,2,0,0,1,0.75
0,430,1,1,0,0,1,0.75
0,431,1,1,0,0,1,0.75
0,432,1,2,0,0,1,0.75
0,433,0.15,1,1,3.7027973306831,0,0.75
0,434,1,1,0,0,1,0.75
0,435,1,1,0,0,1,0.75
0,436,0.1,1,2,1.17879812110914,0,0.75
0,437,1,1,0,0,1,0.75
0,438,1,2,0,0,1,0.75
0,439,1,2,0,0,1,0.75
0,440,1,1,0,0,1,0.75
0,441,0.1,2,2,0.47205909434706,0,0.75
0,442,1,1,0,0,1,0.75
0,443,1,2,0,0,1,0.75
0,444,0.1,2,2,0.487631472758949,0,0.75
0,445,1,1,0,0,1,0.75
0,446,1,1,0,0,1,0.75
0,447,1,1,0,0,1,0.75
0,448,0.1,2,1,0.779932926699985,0,0.75
0,449,1,1,0,0,1,0.75
0,450,1,1,0,0,1,0.75
0,451,0.1,2,1,2.9012221278972,0,0.75
0,452,1,1,0,0,1,0.75
0,453,1,2,0,0,1,0.75
0,454,0,1,1,0.431472167489119,0,0.75
0,455,1,1,0,0,1,0.75
0,456,1,1,0,0,1,0.75
0,457,0.1,1,2,2.50272136472631,0,0.75
0,458,1,2,0,0,1,0.75
0,459,0.15,1,1,0.44801529328106,0,0.75
0,460,1,1,0,0,1,0.75
0,461,1,2,0,0,1,0.75
0,462,1,1,0,0,1,0.75
0,463,0.05,2,2,0.435540901264176,0,0.75
0,464,1,2,0,0,1,0.75
0,465,1,1,0,0,1,0.75
0,466,1,1,0,0,1,0.75
0,467,0.15,1,2,0.372548510087654,0,0.75
0,468,1,1,0,0,1,0.75
0,469,0.05,1,2,0.706672941567376,0,0.75
0,470,1,1,0,0,1,0.75
0,471,0.1,1,1,0.979851057985798,0,0.75
0,472,1,2,0,0,1,0.75
0,473,1,1,0,0,1,0.75
0,474,1,1,0,0,1,0.75
0,475,1,2,0,0,1,0.75
0,476,1,2,0,0,1,0.75
0,477,0.15,2,2,2.45270894968417,0,0.75
0,478,1,1,0,0,1,0.75
0,479,0.1,1,2,0.431949521123897,0,0.75
0,480,1,1,0,0,1,0.75
0,481,1,2,0,0,1,0.75
0,482,1,1,0,0,1,0.75
0,483,1,1,0,0,1,0.75
0,484,0.05,2,2,0.699862311710604,0,0.75
0,485,1,1,0,0,1,0.75
0,486,0.05,1,1,0.957166495674755,0,0.75
0,487,1,2,0,0,1,0.75
0,488,1,1,0,0,1,0.75
0,489,1,1,0,0,1,0.75
0,490,1,2,0,0,1,0.75
0,491,1,2,0,0,1,0.75
0,492,0.15,2,2,0.443976394133642,0,0.75
0,493,1,1,0,0,1,0.75
0,494,1,1,0,0,1,0.75
0,495,0,1,2,0.412974715058226,0,0.75
0,496,1,1,0,0,1,0.75
0,497,1,1,0,0,1,0.75
0,498,1,2,0,0,1,0.75
0,499,1,2,0,0,1,0.75
0,500,1,2,0,0,1,0.75
0,501,1,1,0,0,1,0.75
0,502,0.05,1,1,0.547451451420784,0,0.75
0,503,1,1,0,0,1,0.75
0,504,0.1,2,2,0.41472886124393,0,0.75
0,505,1,1,0,0,1,0.75
0,506,1,1,0,0,1,0.75
0,507,0.1,1,1,2.06844089512015,0,0.75
0,508,1,2,0,0,1,0.75
0,509,0.15,1,2,0.464113787282258,0,0.75
0,510,1,1,0,0,1,0.75
0,511,1,1,0,0,1,0.75
0,512,0.15,1,1,0.341547793417703,0,0.75
0,513,1,1,0,0,1,0.75
0,514,1,1,0,0,1,0.75
0,515,1,1,0,0,1,0.75
0,516,0.15,2,2,1.30012646020623,0,0.75
0,517,1,1,0,0,1,0.75
0,518,1,2,0,0,1,0.75
0,519,1,1,0,0,1,0.75
0,520,1,1,0,0,1,0.75
0,521,0.15,2,2,0.386026371212211,0,0.75
0,522,1,1,0,0,1,0.75
0,523,1,1,0,0,1,0.75
0,524,0.15,1,1,0.330540429742541,0,0.75
0,525,1,2,0,0,1,0.75
0,526,0.1,2,1,0.410854533547536,0,0.75
0,527,1,2,0,0,1,0.75
0,528,1,1,0,0,1,0.75
0,529,1,1,0,0,1,0.75
0,530,0.05,2,1,1.04478237743024,0,0.75
0,531,1,1,0,0,1,0.75
0,532,1,2,0,0,1,0.75
0,533,1,2,0,0,1,0.75
0,534,1,1,0,0,1,0.75
0,535,0,1,1,2.60048453958007,0,0.75
0,536,1,1,0,0,1,0.75
0,537,1,1,0,0,1,0.75
0,538,0.1,2,2,1.04858709103428,0,0.75
0,539,1,2,0,0,1,0.75
0,540,1,1,0,0,1,0.75
0,541,1,1,0,0,1,0.75
0,542,1,1,0,0,1,0.75
0,543,0.05,2,2,0.426246621122118,0,0.75
0,544,1,1,0,0,1,0.75
0,545,1,1,0,0,1,0.75
0,546,0.15,2,2,5.91221890511224,0,0.75
0,547,1,1,0,0,1,0.75
0,548,1,1,0,0,1,0.75
0,549,0.1,1,1,0.551397317962255,0,0.75
0,550,1,1,0,0,1,0.75
0,551,1,1,0,0,1,0.75
0,552,1,2,0,0,1,0.75
0,553,0.05,2,2,0.354068060114514,0,0.75
0,554,1,1,0,0,1,0.75
0,555,1,2,0,0,1,0.75
0,556,1,1,0,0,1,0.75
0,557,1,2,0,0,1,0.75
0,558,1,1,0,0,1,0.75
0,559,1,1,0,0,1,0.75
0,560,0.1,2,2,0.413605412060861,0,0.75
0,561,1,1,0,0,1,0.75
0,562,1,1,0,0,1,0.75
0,563,0,1,1,0.868978944490664,0,0.75
0,564,1,1,0,0,1,0.75
0,565,1,1,0,0,1,0.75
0,566,1,1,0,0,1,0.75
0,567,0.1,2,1,0.677299975068308,0,0.75
0,568,1,1,0,0,1,0.75
0,569,1,2,0,0,1,0.75
0,570,0.05,2,2,0.401213787088636,0,0.75
0,571,1,2,0,0,1,0.75
0,572,0.15,2,2,1.50642181764124,0,0.75
0,573,1,1,0,0,1,0.75
0,574,0.05,2,1,0.451267585565802,0,0.75
0,575,1,1,0,0,1,0.75
0,576,1,1,0,0,1,0.75
0,577,0,1,1,1.04271929874085,0,0.75
0,578,1,2,0,0,1,0.75
0,579,0.1,2,2,1.44838421576424,0,0.75
0,580,1,1,0,0,1,0.75
0,581,0,1,1,0.653362038719933,0,0.75
0,582,1,1,0,0,1,0.75
0,583,1,1,0,0,1,0.75
0,584,0.05,1,1,1.35470741876634,0,0.75
0,585,1,1,0,0,1,0.75
0,586,1,1,0,0,1,0.75
0,587,1,2,0,0,1,0.75
0,588,1,1,0,0,1,0.75
0,589,0.1,1,2,0.480838486982975,0,0.75
0,590,1,1,0,0,1,0.75
0,591,0.05,1,1,1.35547092789784,0,0.75
0,592,1,1,0,0,1,0.75
0,593,1,2,0,0,1,0.75
0,594,0.05,2,2,0.518916420114692,0,0.75
0,595,1,1,0,0,1,0.75
0,596,0.15,1,1,5.59144561795983,0,0.75
0,597,1,1,0,0,1,0.75
0,598,1,1,0,0,1,0.75
0,599,0,2,1,1.12013655906776,0,0.75
0,600,1,1,0,0,1,0.75
0,601,0.1,1,1,0.360346800007392,0,0.75
0,602,1,1,0,0,1,0.75
0,603,0.1,1,2,3.47882256621961,0,0.75
0,604,1,2,0,0,1,0.75
0,605,1,1,0,0,1,0.75
0,606,1,1,0,0,1,0.75
0,607,1,1,0,0,1,0.75
0,608,0.05,1,2,0.34428776463028,0,0.75
0,609,1,1,0,0,1,0.75
0,610,1,1,0,0,1,0.75
0,611,1,1,0,0,1,0.75
0,612,1,2,0,0,1,0.75
0,613,1,1,0,0,1,0.75
0,614,0,2,2,0.394610716204625,0,0.75
0,615,1,2,0,0,1,0.75
0,616,1,1,0,0,1,0.75
0,617,1,1,0,0,1,0.75
0,618,1,1,0,0,1,0.75
0,619,1,1,0,0,1,0.75
0,620,1,1,0,0,1,0.75
0,621,0.15,2,1,0.711310136772227,0,0.75
0,622,1,1,0,0,1,0.75
0,623,1,1,0,0,1,0.75
0,624,1,1,0,0,1,0.75
0,625,0.1,1,2,0.381506268808153,0,0.75
0,626,1,1,0,0,1,0.75
0,627,0,2,1,0.456203126814216,0,0.75
0,628,1,1,0,0,1,0.75
0,629,1,2,0,0,1,0.75
0,630,1,1,0,0,1,0.75
0,631,1,2,0,0,1,0.75
0,632,0.05,2,2,0.610034499084577,0,0.75
0,633,1,2,0,0,1,0.75
0,634,1,1,0,0,1,0.75
0,635,1,1,0,0,1,0.75
0,636,1,1,0,0,1,0.75
0,637,0.15,1,1,0.405556485871784,0,0.75
0,638,1,2,0,0,1,0.75
0,639,1,1,0,0,1,0.75
0,640,0.05,2,2,0.300776726158801,0,0.75
0,641,1,1,0,0,1,0.75
0,642,1,2,0,0,1,0.75
0,643,1,1,0,0,1,0.75
0,644,0.05,1,2,0.403084063669667,0,0.75
0,645,1,1,0,0,1,0.75
0,646,1,2,0,0,1,0.75
0,647,1,1,0,0,1,0.75
0,648,1,1,0,0,1,0.75
0,649,1,1,0,0,1,0.75
0,650,0.15,2,2,0.330414996133186,0,0.75
0,651,1,1,0,0,1,0.75
0,652,1,2,0,0,1,0.75
0,653,0.15,2,1,0.794640743290074,0,0.75
0,654,1,1,0,0,1,0.75
0,655,0.05,1,2,0.290179347619414,0,0.75
0,656,1,1,0,0,1,0.75
0,657,1,1,0,0,1,0.75
0,658,1,1,0,0,1,0.75
0,659,1,1,0,0,1,0.75
0,660,0,2,2,0.50643047929043,0,0.75
0,661,1,1,0,0,1,0.75
0,662,1,2,0,0,1,0.75
0,663,1,1,0,0,1,0.75
0,664,0.15,2,1,0.848571756738238,0,0.75
0,665,1,1,0,0,1,0.75
0,666,1,1,0,0,1,0.75
0,667,0.05,1,1,0.428147694794461,0,0.75
0,668,1,1,0,0,1,0.75
0,669,1,1,0,0,1,0.75
0,670,1,2,0,0,1,0.75
0,671,1,1,0,0,1,0.75
0,672,0.05,2,1,0.408658321946859,0,0.75
0,673,1,2,0,0,1,0.75
0,674,1,1,0,0,1,0.75
0,675,1,1,0,0,1,0.75
0,676,1,1,0,0,1,0.75
0,677,0.1,2,2,0.436731718946248,0,0.75
0,678,1,1,0,0,1,0.75
0,679,1,2,0,0,1,0.75
0,680,0.05,1,1,0.443074298382271,0,0.75
0,681,1,1,0,0,1,0.75
0,682,0.05,1,2,0.439159549714532,0,0.75
