trialIdx,fixationDuration,coh,rdkDir,trialType,fixationDurationTrue,rdkDuration,choice,RTms,prob,sub
1,0.76556331356282,1,1,1,0.759829846752837,1.30596274208438,999,0,0.5,1
2,0.647451528745358,1,1,1,0.647109736653874,1.29407254610669,999,0,0.5,1
3,0.807791667204139,1,-1,1,0.811768291312546,1.29405586441681,999,0,0.5,1
4,0.718065439350494,1,-1,1,0.717529569899853,1.29414536810327,999,0,0.5,1
5,0.749244782480162,1,1,1,0.75292843875468,1.29410238066885,999,0,0.5,1
6,0.670136997543444,1,1,1,0.670523773012974,1.29417103224478,999,0,0.5,1
7,0.717646884016214,1,1,1,0.717662381823175,1.29406805488361,999,0,0.5,1
8,0.711639658365689,1,-1,1,0.717757339141826,1.29421273647131,999,0,0.5,1
9,0.710162121736015,1,-1,1,0.703681200055144,1.29409756864516,999,0,0.5,1
10,0.660859882782566,1,-1,1,0.658756764905775,1.29415916257858,999,0,0.5,1
11,0.737074439921456,1,-1,1,0.74412660120106,1.29417873148668,999,0,0.5,1
12,0.60312541539903,1,1,1,0.610503049219915,1.29415274654457,999,0,0.5,1
13,0.723822309738321,1,-1,1,0.729337961432975,1.29418001469276,999,0,0.5,1
14,0.814026826328417,1,1,1,0.811849774956499,1.29412323278302,999,0,0.5,1
15,0.685983783241812,1,1,1,0.682385738437006,1.29409500222937,999,0,0.5,1
16,0.739070862753857,1,-1,1,0.741184528373196,1.29412676160246,999,0,0.5,1
17,0.760673467417055,1,1,1,0.764614604820963,1.29416814502838,999,0,0.5,1
18,0.667062622875868,1,1,1,0.670627712779606,1.29426342314764,999,0,0.5,1
19,0.85134554615942,1,-1,1,0.847150799278097,1.29416525781198,999,0,0.5,1
20,0.772409640186136,1,-1,1,0.776480419865038,1.29413734806076,999,0,0.5,1
21,0.71265538043554,1,-1,1,0.716197601044769,1.2941334984389,999,0,0.5,1
22,0.641240376935026,1,1,1,0.647044934699807,1.29420247081543,999,0,0.5,1
23,0.823616998676787,1,-1,1,0.820130630472704,1.29408281176438,999,0,0.5,1
24,0.678951241203126,1,1,1,0.682303613190015,1.29417135304539,999,0,0.5,1
25,0.644224101079466,1,-1,1,0.648753204006425,1.29419156355652,999,0,0.5,1
26,0.672653769165073,1,-1,1,0.667897689907477,1.29427625521748,999,0,0.5,1
27,0.603115750782095,1,-1,1,0.600047157857261,1.29425925272335,999,0,0.5,1
28,0.85550661148077,1,1,1,0.861323499690116,1.29420856604702,999,0,0.5,1
29,0.651557621900701,1,1,1,0.646936503710094,1.29420247081543,999,0,0.5,1
30,0.895144673985691,1,1,1,0.894095002229733,1.2940969270403,999,0,0.5,1
31,0.630317270301233,1,1,1,0.635257716083288,1.29409564383241,999,0,0.5,1
32,0.845923016120159,1,1,1,0.848809023511421,1.29423711740492,999,0,0.5,1
33,0.668278420695797,1,-1,1,0.670553286774521,1.29414312249173,999,0,0.5,1
34,0.864894175270192,1,1,1,0.870465066294855,1.29422813495512,999,0,0.5,1
35,0.798566965300669,1,1,1,0.799978827084487,1.29405682682045,999,0,0.5,1
36,0.874930906965872,1,-1,1,0.870620013536609,1.2941899595462,999,0,0.5,1
37,0.846209680032017,1,-1,1,0.847088884540426,1.29424738306079,999,0,0.5,1
38,0.828405514371323,1,1,1,0.819177849281914,1.29413927287169,999,0,0.5,1
39,0.871012975901803,1,-1,1,0.870705025999996,1.29416237059559,999,0,0.5,1
40,0.810837781725184,1,-1,1,0.811871910278569,1.29409564383241,999,0,0.5,1
41,0.853145108926781,1,-1,1,0.858690358945751,1.29420856604884,999,0,0.5,1
42,0.695234655761744,1,-1,1,0.694172636252915,1.29421819010167,999,0,0.5,1
43,0.867408671044199,1,1,1,0.866878502754844,1.29420279161604,999,0,0.5,1
44,0.86533534883967,1,-1,1,0.870541417109052,1.29406388445932,999,0,0.5,1
45,0.828231897956414,1,-1,1,0.823450286956358,1.29418995954802,999,0,0.5,1
46,0.831528621882633,1,-1,1,0.835254187266401,1.29425796951728,999,0,0.5,1
47,0.886328901376093,1,-1,1,0.882394400085104,1.29418482671827,999,0,0.5,1
48,0.873702386145731,1,1,1,0.870587612560485,1.29412419518849,999,0,0.5,1
49,0.645042809595027,1,1,1,0.646991040006469,1.29405297720041,999,0,0.5,1
50,0.650505037060495,1,1,1,0.646971471100187,1.29410462628221,999,0,0.5,1
51,0.681024543105884,0.08,-1,0,0.680973248341616,0.705993539051633,0,603.780327795903,0.5,1
52,0.630506473871265,1,1,1,0.635239109582471,1.29420888684945,999,0,0.5,1
53,0.754201828305327,1,1,1,0.751405592858646,1.29408281176438,999,0,0.5,1
54,0.756954987040227,0.08,1,0,0.752889300940296,0.706034601676947,1,534.202599135824,0.5,1
55,0.694174202015652,1,1,1,0.694183543511826,1.29427015998408,999,0,0.5,1
56,0.649746813675374,1,1,1,0.64701060891457,1.2942460998529,999,0,0.5,1
57,0.762960218515525,1,1,1,1.27427041662668,1.29418226030612,999,0,0.5,1
58,0.633971980453893,0,-1,0,0.635402076870378,0.705935473935824,1,402.731947684515,0.5,1
59,0.742670816651156,1,1,1,0.741113310385117,1.2940391827251,999,0,0.5,1
60,0.701848399967016,1,1,1,0.705886391269814,1.2941973379875,999,0,0.5,1
61,0.786431325143771,0.04,-1,0,1.7766183646163,0.705767373819981,0,522.706347705025,0.5,1
62,0.88930614063009,1,1,1,0.894189959546566,1.29425764871485,999,0,0.5,1
63,0.889662558737783,0.08,-1,0,0.894181618701623,0.705853027886405,0,1291.94434731289,0.5,1
64,0.79439420790554,1,-1,1,0.792588196420184,1.29415499215611,999,0,0.5,1
65,0.840337551976415,0.08,-1,0,0.830572085757012,0.705891844900179,1,853.064458695371,0.5,1
66,0.628755263230108,1,1,1,0.623492953589448,1.29407703733159,999,0,0.5,1
67,0.779487836518069,1,1,1,0.776443527665833,1.29414151848323,999,0,0.5,1
68,0.64133221563601,0.12,1,0,5.5741433791336,0.705930982710925,1,911.101344479903,0.5,1
69,0.811547211467649,1,1,1,0.811616872890227,1.29419669638264,999,0,0.5,1
70,0.83499778227987,0.04,-1,0,0.835281776215197,0.7058985817348,1,831.171664223803,0.5,1
71,0.725342838830474,1,1,1,0.729384477686835,1.29417488186482,999,0,0.5,1
72,0.630457607793874,0.08,1,0,0.632308264815947,0.705907243382171,1,621.259852623552,0.5,1
73,0.654099091113233,1,-1,1,0.658939301101782,1.29403084188016,999,0,0.5,1
74,0.899388308383132,1,1,1,0.889320189016871,1.29417071144235,999,0,0.5,1
75,0.749889549534154,1,1,1,0.764889211115587,1.29418354351219,999,0,0.5,1
76,0.898503600909384,0.04,-1,0,0.894105267885607,0.705850461472437,1,754.455455073185,0.5,1
77,0.600535801750228,1,-1,1,0.598192602954441,1.29411681674901,999,0,0.5,1
78,0.892294018561392,1,1,1,0.891926061613049,1.29417199464842,999,0,0.5,1
79,0.60164130916803,0.04,1,0,0.594524876571086,0.705907564184599,1,606.669147533466,0.5,1
80,0.80287162389135,1,1,1,0.80008469166205,1.29419477157353,999,0,0.5,1
81,0.604951710846242,0.12,-1,0,0.595680404467203,0.705912697012536,0,661.003660346978,0.5,1
82,0.653848783943211,1,-1,1,0.658841135766124,1.29419060114924,999,0,0.5,1
83,0.813881674527215,0.04,1,0,0.809242298351819,0.705944777188051,1,665.848408341844,0.5,1
84,0.641502594523741,1,1,1,0.64428122764366,1.29421081166038,999,0,0.5,1
85,0.848794760578879,1,-1,1,0.847026649002146,1.29422171891929,999,0,0.5,1
86,0.817536474819533,0.04,1,0,0.823598176562882,0.705904356167594,1,493.226591897837,0.5,1
87,0.756111220101249,1,-1,1,0.75289058414819,1.29416204979498,999,0,0.5,1
88,0.858969536188356,1,-1,1,0.858853005431229,1.29418803473527,999,0,0.5,1
89,0.87579478552921,1,1,1,0.86326595427272,1.2940802453486,999,0,0.5,1
90,0.819449079394333,0.04,1,0,0.823505144056981,0.70582287252364,1,446.068093378926,0.5,1
91,0.899319598982587,1,1,1,0.894113929532978,1.29418707232981,999,0,0.5,1
92,0.653740764425074,1,-1,1,0.658677206072753,1.29405297720041,999,0,0.5,1
93,0.704161482358434,1,-1,1,0.705852065482759,1.29417841068425,999,0,0.5,1
94,0.706518010559335,1,-1,1,0.70473920421864,1.2941428016893,999,0,0.5,1
95,0.767053767982408,0.12,-1,0,0.756369358301527,0.705977498966604,1,1707.06662089833,0.5,1
96,0.62393265859058,1,1,1,0.623574116430973,1.29417680667575,999,0,0.5,1
97,0.649398880933874,0.08,-1,0,0.647048142716812,0.7058498198694,0,462.026376320864,0.5,1
98,0.672539847125243,1,-1,1,0.670601727839312,1.29417391945935,999,0,0.5,1
99,0.88670097424078,0.04,1,0,0.885883760694924,0.705896977726297,1,383.166249090209,0.5,1
100,0.744104629098517,1,1,1,0.741205380487372,1.29420439562455,999,0,0.5,1
101,0.640929893710765,1,-1,1,0.635101485633641,1.29418450591584,999,0,0.5,1
102,0.607443419121162,1,1,1,0.611772782536718,1.29414857612028,999,0,0.5,1
103,0.803410315964657,0.04,-1,0,0.799986205525784,0.705980386181182,1,658.355441919412,0.5,1
104,0.764680086870879,1,1,1,0.764781421728912,1.29418675153102,999,0,0.5,1
105,0.683262480822697,1,1,1,0.682328956529091,1.2941883555377,999,0,0.5,1
106,0.740316623092152,0.12,1,0,0.74112806726589,0.705904676970022,1,441.163676259748,0.5,1
107,0.758541079581381,1,-1,1,0.748517735524729,1.29419541317657,999,0,0.5,1
108,0.63141774311253,1,1,1,0.635303269931683,1.29414312249173,999,0,0.5,1
109,0.757314195937081,0.08,1,0,0.752968218170281,0.705817739695703,1,570.304023816789,0.5,1
110,0.68155738124953,1,1,1,0.682368735944692,1.29417905228729,999,0,0.5,1
111,0.630141297907264,0,1,0,0.635199650967479,0.705923283470838,0,687.605182871266,0.5,1
112,0.8199018129514,1,-1,1,0.818242070581618,1.29419060115106,999,0,0.5,1
113,0.83287941082685,0.04,1,0,0.835283701026128,0.705980065378753,1,453.711515820032,0.5,1
114,0.676216693824682,1,1,1,0.666560588220818,1.29409532302998,999,0,0.5,1
115,0.786068710386529,0,1,0,0.789851115909187,0.705853990291871,1,1119.14095708016,0.5,1
116,0.689461336845765,1,-1,1,0.694103984678804,1.29421626528892,999,0,0.5,1
117,0.704917445650281,1,1,1,0.705899544142085,1.29419348836564,999,0,0.5,1
118,0.631219868621463,0.08,-1,0,0.635222427892586,0.705943814782586,0,440.155075564689,0.5,1
119,0.697660433849901,1,-1,1,1.16463738174389,1.29422460613569,999,0,0.5,1
120,0.895240877240791,1,-1,1,0.887694365757852,1.29417071144053,999,0,0.5,1
121,0.828553226065848,1,-1,1,0.82355198111145,1.29423551339642,999,0,0.5,1
122,0.714222461162179,1,-1,1,0.714882955482608,1.29413125282736,999,0,0.5,1
123,0.712400263322488,1,-1,1,0.715069662099268,1.29410558868767,999,0,0.5,1
124,0.697295019323768,1,1,1,0.695853958211956,1.294156275364,999,0,0.5,1
125,0.703607779219767,1,-1,1,0.704906662731446,1.2941245159891,999,0,0.5,1
126,0.725845721036334,1,1,1,0.729421049085431,1.29415595456157,999,0,0.5,1
127,0.80777935985533,1,-1,1,0.813955838430047,1.29415755857008,999,0,0.5,1
128,0.691594254829343,1,1,1,0.694143443293797,1.29414857612028,999,0,0.5,1
129,0.727075564491901,0.08,-1,0,0.729422332293325,0.705921037857479,1,570.650489704349,0.5,1
130,0.610946567967366,1,-1,1,0.605003224058237,1.29416718262291,999,0,0.5,1
131,0.686089980553664,0.08,1,0,0.682249718496678,0.706012787157306,1,883.523943037289,0.5,1
132,0.823843375130301,1,1,1,0.816501400300695,1.29419797959054,999,0,0.5,1
133,0.718021117924816,1,-1,1,0.717698632421161,1.29409211501479,999,0,0.5,1
134,0.791680679393692,1,-1,1,0.788243257549766,1.29404880677794,999,0,0.5,1
135,0.79604636436719,1,-1,1,0.798643971013007,1.2942489870693,999,0,0.5,1
136,0.650718352330572,0.12,1,0,0.647586448052607,0.705937398746755,1,389.671787732368,0.5,1
137,0.642595051644382,1,1,1,0.647164272950249,1.29410270147127,999,0,0.5,1
138,0.763462278229226,1,1,1,0.764698334076456,1.29413863126683,999,0,0.5,1
139,0.651661103305112,0.04,-1,0,0.647068032427342,0.705896977726297,0,1144.00405493507,0.5,1
140,0.76346384077344,1,1,1,1.23681745418253,1.2941668618223,999,0,0.5,1
141,0.765513996559691,1,1,1,0.764728168638612,1.29414376409659,999,0,0.5,1
142,0.848214521706199,1,-1,1,0.847085997325848,1.2941883555377,999,0,0.5,1
143,0.896923650088784,0.08,1,0,0.904052046875222,0.70588093763763,1,1205.84308303478,0.5,1
144,0.874914217397892,1,1,1,0.870655301730949,1.29412227037756,999,0,0.5,1
145,0.842133090250604,1,1,1,0.847175501012316,1.29422909735877,999,0,0.5,1
146,0.806327477032452,0.08,1,0,0.811784331401213,0.705845328646319,1,1434.18174702128,0.5,1
147,0.675903208888538,1,-1,1,0.670659472152693,1.29409115260751,999,0,0.5,1
148,0.648631189717858,1,-1,1,0.647083430911152,1.29423198457698,999,0,0.5,1
149,0.841323468926666,0.12,1,0,0.84862263769719,0.705889920089248,0,579.015395274837,0.5,1
150,0.769247747496844,1,1,1,0.769353488238266,1.29421722769439,999,0,0.5,1
151,0.758600091197883,1,1,1,0.752924909935246,1.29417937308972,999,0,0.5,1
152,0.782224923618955,1,1,1,0.78830677629594,1.29408217015953,999,0,0.5,1
153,0.862091824094615,0,-1,0,0.858783070651043,0.705918150641082,0,473.388853422875,0.5,1
154,0.693243847585297,1,-1,1,0.694084415772522,1.29418290190915,999,0,0.5,1
155,0.629960284274315,0.12,1,0,0.635306798751117,0.705833458980123,1,376.600078916454,0.5,1
156,0.84837619808415,1,1,1,0.847047821916931,1.29415820017311,999,0,0.5,1
157,0.841875523308413,1,1,1,0.84700579688797,1.29415146333849,999,0,0.5,1
158,0.857356352558204,0.12,-1,0,0.858755160897999,0.705913659418002,0,572.719660976873,0.5,1
159,0.612855283784433,1,-1,1,0.611716321429412,1.29404495715607,999,0,0.5,1
160,0.631622772761294,0.12,1,0,0.632863893442845,0.705837308601986,1,1964.87702064951,0.5,1
161,0.787833790170202,1,-1,1,1.27505862651924,1.29428620007093,999,0,0.5,1
162,0.863279167575259,1,-1,1,0.858839852558958,1.29418899714074,999,0,0.5,1
163,0.732587366877958,0.12,-1,0,0.727821852373381,0.706003483906898,0,499.592260979625,0.5,1
164,0.785391597969261,1,-1,1,0.788264109663942,1.29418707233162,999,0,0.5,1
165,0.617941458335803,1,1,1,0.623541715454849,1.29425251588691,999,0,0.5,1
166,0.836348232163711,0.04,1,0,0.835224031899998,0.705913659418002,0,435.89065793276,0.5,1
167,0.619164090960564,1,-1,1,0.623603950994948,1.29427015998408,999,0,0.5,1
168,0.891503797308455,1,1,1,0.894103984677713,1.29410205986824,999,0,0.5,1
169,0.712332982685593,0.12,1,0,0.714645882992045,0.705839875015954,0,458.963682034664,0.5,1
170,0.607372802358167,1,1,1,0.611856511794031,1.29417295705389,999,0,0.5,1
171,0.706813563996679,1,1,1,0.705867143164141,1.29430737298571,999,0,0.5,1
172,0.652788943410618,0.04,-1,0,0.648590878323375,0.705885108061921,0,351.612509984989,0.5,1
173,0.686832308770696,1,1,1,0.680212306597241,1.29413478164497,999,0,0.5,1
174,0.656291186445475,1,1,1,0.668061940401458,1.29409371902329,999,0,0.5,1
175,0.832513399857928,1,1,1,0.84024522085565,1.29408056615102,999,0,0.5,1
176,0.779176372384364,1,-1,1,0.776461171761184,1.29413734806076,999,0,0.5,1
177,0.813059729575688,1,-1,1,0.811789143428541,1.2941043054816,999,0,0.5,1
178,0.656723038813818,0.12,-1,0,0.655205489560103,0.705944135583195,0,343.932195342859,0.5,1
179,0.888727278904455,1,1,1,0.8990417651803,1.29412355358545,999,0,0.5,1
180,0.763434057121841,1,1,1,0.759170599159916,1.29416878663142,999,0,0.5,1
181,0.600406190525108,1,1,1,0.60002309772608,1.2940587516332,999,0,0.5,1
182,0.780725226186841,1,-1,1,0.776579226803733,1.29419028034863,999,0,0.5,1
183,0.894027836000716,0.12,1,0,0.894007102551768,0.70590980979614,0,636.834456674478,0.5,1
184,0.770517230639761,1,-1,1,0.776444169267052,1.29406965889211,999,0,0.5,1
185,0.894045948470638,1,1,1,0.896530208297918,1.29415948338101,999,0,0.5,1
186,0.787803859957286,0.08,-1,0,0.788152470655405,0.705904676968203,0,316.148839179732,0.5,1
187,0.604183211822546,1,-1,1,0.610448833725968,1.29425315749177,999,0,0.5,1
188,0.890872163132491,1,-1,1,0.894152425742504,1.29419445077292,999,0,0.5,1
189,0.788441991686014,0.08,-1,0,0.788149583439008,0.705906922581562,0,984.5020675657,0.5,1
190,0.617292412465843,1,1,1,1.09415563376024,1.29413702725833,999,0,0.5,1
191,0.861722938712421,1,-1,1,0.858910428945819,1.29426823517315,999,0,0.5,1
192,0.640917021736995,0.08,-1,0,0.63853085631672,0.705940606763761,0,2060.45990138591,0.5,1
193,0.898196964173906,1,1,1,0.89411136311719,1.29425636550877,999,0,0.5,1
194,0.717120193311852,0.04,-1,0,0.728205210461965,0.705935473935824,0,1629.61705895395,0.5,1
195,0.662071153645256,1,-1,1,1.67058312133668,1.29427048078651,999,0,0.5,1
196,0.710539570940817,0.04,-1,0,0.705831534171011,0.706008616734835,1,722.527019526751,0.5,1
197,0.662620824005983,1,-1,1,1.10929073941588,1.29425732791242,999,0,0.5,1
198,0.770338480970364,1,1,1,0.759423070137927,1.29411649594658,999,0,0.5,1
199,0.822882218601483,0.12,-1,0,0.819445718740099,0.705930020307278,1,21600.2165411792,0.5,1
200,0.640225636486909,1,1,1,0.63535908943777,1.29419060115106,999,0,0.5,1
201,0.773857165164658,0.12,-1,0,0.776392840987683,0.705800416400962,0,489.362214044377,0.5,1
202,0.833428030937947,1,-1,1,0.82759857435849,1.294086340582,999,0,0.5,1
203,0.606605730862661,0.12,1,0,0.608588504390355,0.705997709475923,0,4075.23731309266,0.5,1
204,0.6935839762133,1,1,1,0.694076395728189,1.29417295705389,999,0,0.5,1
205,0.668991240654746,1,1,1,0.670618409529197,1.29411296712715,999,0,0.5,1
206,0.704879929066655,1,1,1,0.705863935147136,1.29420824524641,999,0,0.5,1
207,0.8066135569462,1,-1,1,0.811871910278569,1.29419862119357,999,0,0.5,1
208,0.740502264976222,1,1,1,1.24141165601031,1.29414472650024,999,0,0.5,1
209,0.880481762458224,1,-1,1,1.43316159746428,1.29416622021745,999,0,0.5,1
210,0.821850876406605,0.04,-1,0,0.822102598815036,0.705874521605438,0,997.748934136325,0.5,1
211,0.839628526646321,1,-1,1,0.827397431659847,1.29416557861259,999,0,0.5,1
212,0.809225777542955,1,1,1,0.811698998137217,1.29411777915448,999,0,0.5,1
213,0.743587897229483,1,1,1,0.736387259037656,1.29425764871485,999,0,0.5,1
214,0.805170527786466,1,-1,1,0.800142115173003,1.29415210494153,999,0,0.5,1
215,0.768511279005744,1,-1,1,0.764737471889021,1.29419701718507,999,0,0.5,1
216,0.601673278173398,1,1,1,0.599919478761876,1.29407030049333,999,0,0.5,1
217,0.736569847517242,0.12,-1,0,0.740935907018866,0.705904997770631,0,564.782063333041,0.5,1
218,0.711218721343137,1,1,1,0.705920396254442,1.29412772400792,999,0,0.5,1
219,0.834332009564445,1,1,1,1.31770601086282,1.2941928467626,999,0,0.5,1
220,0.894225295276736,0.04,-1,0,0.889766424246773,0.705950872421454,1,1120.00583859117,0.5,1
221,0.742377987635715,1,1,1,0.742254723003498,1.29417071144235,999,0,0.5,1
222,0.750282815813933,1,-1,1,1.2588777071669,1.29416750342352,999,0,0.5,1
223,0.688133588168052,0.08,-1,0,0.694100776661799,0.706036526486059,0,1578.12517042657,0.5,1
224,0.673710187716656,1,-1,1,0.670473086336642,1.29415755857008,999,0,0.5,1
225,0.649930281538472,0.08,1,0,0.647067070020057,0.705901148150588,1,628.362724119143,0.5,1
226,0.83995461416324,1,1,1,0.826351617963155,1.29421209486827,999,0,0.5,1
227,0.827222298019982,1,1,1,0.823541715455576,1.29418899714256,999,0,0.5,1
228,0.78242178202359,1,1,1,1.28247973334874,1.29416493700955,999,0,0.5,1
229,0.646453624620705,0.12,-1,0,0.64706835322977,0.705926170685416,1,812.15389501449,0.5,1
230,0.684763820466049,1,-1,1,0.689948639639624,1.29415050093121,999,0,0.5,1
231,0.783301673615235,1,-1,1,0.788335006849593,1.29416044578647,999,0,0.5,1
232,0.743742192632882,1,-1,1,0.741087004642395,1.29410590948828,999,0,0.5,1
233,0.659294625468986,0.08,-1,0,0.657253167115414,0.705862010336205,1,1539.13203879165,0.5,1
234,0.853342732948734,1,-1,1,0.858939621903119,1.29421337807435,999,0,0.5,1
235,0.827335131287699,1,-1,1,0.823539149041608,1.29424738305897,999,0,0.5,1
236,0.780141380930041,1,-1,1,0.771270920284223,1.29417488186482,999,0,0.5,1
237,0.765510315064807,1,1,1,0.764630644907811,1.29418739313405,999,0,0.5,1
238,0.881471784761622,0.04,1,0,0.882355903875578,0.705834421385589,1,421.869055142452,0.5,1
239,0.707552760394381,1,-1,1,1.1763771217029,1.29416942823627,999,0,0.5,1
240,0.693137125497847,1,1,1,0.694049127580001,1.29412162877452,999,0,0.5,1
241,0.853449594912926,1,-1,1,0.858861025475562,1.29419348836564,999,0,0.5,1
242,0.843224939553944,0.08,-1,0,0.847094338170791,0.705905318573059,0,760.750547768112,0.5,1
243,0.846110147928368,1,1,1,0.847035310649517,1.29425925272517,999,0,0.5,1
244,0.831536796408547,0.12,1,0,0.835260603300412,0.705826401343074,1,3269.45742800308,0.5,1
245,0.850377716446264,1,-1,1,0.841818753428015,1.29408409497046,999,0,0.5,1
246,0.879052800767281,1,-1,1,0.882363603117483,1.29423358858367,999,0,0.5,1
247,0.805064485536813,0.12,1,0,0.800001604007775,0.705900506545731,1,1275.17283194175,0.5,1
248,0.817283704386405,1,-1,1,0.813589482835596,1.2941838643128,999,0,0.5,1
249,0.627526500682054,1,1,1,0.61567437339545,1.29424738306079,999,0,0.5,1
250,0.814002880728976,1,1,1,0.815115857551064,1.2942521950863,999,0,0.5,1
251,0.800518143558451,1,-1,1,0.800007378440569,1.29418707232981,999,0,0.5,1
252,0.619211945208351,1,-1,1,0.623581494872269,1.29408056615102,999,0,0.5,1
253,0.754184883002676,1,-1,1,0.750179488577487,1.29416076658708,999,0,0.5,1
254,0.86170092930198,0,1,0,0.858860704673134,0.70601631597674,0,616.623304962559,0.5,1
255,0.616729546517622,1,-1,1,0.611728832698645,1.29416140819194,999,0,0.5,1
256,0.756411639409281,0.08,1,0,0.750875307569004,0.705947343600201,1,435.819760747108,0.5,1
257,0.836534420812179,1,-1,1,0.835271510559323,1.29411104231622,999,0,0.5,1
258,0.715296274569504,1,1,1,0.71270374921005,1.29407960374556,999,0,0.5,1
259,0.691689897984052,0,-1,0,0.692707534670262,0.705952797230566,0,1174.74937363477,0.5,1
260,0.876251752741887,1,1,1,0.881171183020342,1.29414600970631,999,0,0.5,1
261,0.878214476196916,0.08,1,0,0.882364886323558,0.705948306005666,0,598.538106436536,0.5,1
262,0.633346714854225,1,-1,1,0.647317616187138,1.29408698218685,999,0,0.5,1
263,0.796900576162326,1,1,1,0.798562808169663,1.29416846583081,999,0,0.5,1
264,0.825136641206529,0.08,1,0,0.821101376559454,0.706008616736653,1,907.708224392991,0.5,1
265,0.677242916031968,1,-1,1,1.18826218485265,1.29421209486827,999,0,0.5,1
266,0.65436177048424,1,-1,1,0.658842418972199,1.29412291198241,999,0,0.5,1
267,0.773012324794594,1,1,1,0.772410087291064,1.29406131804535,999,0,0.5,1
268,0.636619719476624,0.08,1,0,0.630690140800652,0.705912055409499,0,1158.83343652422,0.5,1
269,0.753310471068333,1,-1,1,0.752981691843161,1.29418963874559,999,0,0.5,1
270,0.702125460259043,1,-1,1,0.705791433952982,1.29418258110672,999,0,0.5,1
271,0.773361823937266,1,1,1,0.776454755725354,1.29427304720048,999,0,0.5,1
272,0.841574216601503,0.12,-1,0,1.32235346578273,0.705910130598568,0,566.767184547643,0.5,1
273,0.783523975111105,1,1,1,0.788215347796722,1.29415178413728,999,0,0.5,1
274,0.707235879147437,1,-1,1,0.705779243484358,1.29412964881885,999,0,0.5,1
275,0.612789437202576,1,1,1,0.611794597058179,1.29411104231622,999,0,0.5,1
276,0.725608132176585,0.08,1,0,0.729374853635818,0.705890240889858,1,1154.71113406602,0.5,1
277,0.836994772609718,1,1,1,0.835312893985247,1.29418899714256,999,0,0.5,1
278,0.700911464355426,1,-1,1,0.705937077944327,1.29419990440147,999,0,0.5,1
279,0.630087348906705,0.12,1,0,0.635286909044225,0.70586297274167,1,575.539187537288,0.5,1
280,0.797863934574012,1,-1,1,0.80010490217137,1.29415852097554,999,0,0.5,1
281,0.895203135773675,0.12,-1,0,0.898115289732232,0.705971082930773,1,1662.16977469958,0.5,1
282,0.721034762239549,1,1,1,0.717557158850468,1.2942355133946,999,0,0.5,1
283,0.639958698623555,1,-1,1,0.63531481879545,1.294198941996,999,0,0.5,1
284,0.868410986884355,1,-1,1,0.870578950913114,1.29422171892111,999,0,0.5,1
285,0.814722168422268,1,-1,1,0.806600816762511,1.29421337807435,999,0,0.5,1
286,0.780373021992046,0.12,1,0,0.772024804391549,0.705984877406081,1,485.225475507832,0.5,1
287,0.894071184868793,1,1,1,0.894109759110506,1.2940648468666,999,0,0.5,1
288,0.763728135643828,1,-1,1,0.764773722487007,1.29415595456157,999,0,0.5,1
289,0.675595208396634,0.04,-1,0,0.670535321876741,0.705872275992078,1,1898.84639691445,0.5,1
290,0.856832768873699,1,1,1,0.858805847574331,1.29409211501297,999,0,0.5,1
291,0.730471336192484,1,-1,1,2.87537525784501,1.29408826539293,999,0,0.5,1
292,0.79387616991502,1,-1,1,0.789016710563374,1.29416012498405,999,0,0.5,1
293,0.898531084113904,1,1,1,5.89194049769139,1.29411842075751,999,0,0.5,1
294,0.74727426946696,1,1,1,0.752972067792143,1.29407415011701,999,0,0.5,1
295,0.70758361707566,1,-1,1,0.701393241990445,1.29418610992616,999,0,0.5,1
296,0.757826480267889,0.08,-1,0,0.75307055392841,0.705959213266397,1,2821.85878948621,0.5,1
297,0.609676863252876,1,-1,1,0.611803900308587,1.29414857612028,999,0,0.5,1
298,0.619044179937741,0.12,-1,0,0.623825304199272,0.705894411312329,0,475.398355571087,0.5,1
299,0.714830951023653,1,1,1,0.71432059001927,1.29428267125331,999,0,0.5,1
300,0.792597890742069,1,1,1,0.788315437943311,1.29416846583081,999,0,0.5,1
301,0.634823093110506,0.08,-1,0,0.633378459446249,0.705921679462335,0,618.228276107402,0.5,1
302,0.699002017540092,1,-1,1,0.694032766690725,1.2941671826211,999,0,0.5,1
303,0.704076355641836,1,1,1,0.700307969678761,1.29422588934358,999,0,0.5,1
304,0.771319836953199,1,1,1,0.776474645434064,1.29404046593118,999,0,0.5,1
305,0.749687069763494,1,-1,1,0.752900208201027,1.29405297720041,999,0,0.5,1
306,0.748808233527943,0,-1,0,0.753053230635487,0.705911734607071,0,3790.14400790402,0.5,1
307,0.611418564082351,1,1,1,0.613616430182446,1.2940953230318,999,0,0.5,1
308,0.623981094251545,0.08,1,0,0.62361934947694,0.705934511532178,1,455.656216014177,0.5,1
309,0.731770540431766,1,1,1,0.721093677319004,1.29418001469276,999,0,0.5,1
310,0.819838858662422,1,-1,1,0.823550697903556,1.29430416496871,999,0,0.5,1
311,0.860001563030555,0.04,-1,0,0.858727571949203,0.706030110452048,0,1170.41213400626,0.5,1
312,0.815901974179191,1,-1,1,0.802791937610891,1.29418129789883,999,0,0.5,1
313,0.860020787874211,0,1,0,0.850106345780659,0.705881258441877,1,787.286947539542,0.5,1
314,0.871584898065928,1,-1,1,0.870558098800757,1.29413414004375,999,0,0.5,1
315,0.739247754792881,1,-1,1,0.741078022192596,1.29415338814761,999,0,0.5,1
316,0.617554859172708,1,1,1,0.617778832858676,1.29417680667575,999,0,0.5,1
317,0.625275883878651,1,1,1,0.623645013618443,1.2941912427541,999,0,0.5,1
318,0.72408048242773,1,1,1,0.729348547891277,1.29418418511523,999,0,0.5,1
319,0.794732462899329,1,-1,1,0.793726401021559,1.29412227037756,999,0,0.5,1
320,0.706637443560836,1,-1,1,0.705959534067006,1.29421979411018,999,0,0.5,1
321,0.616560751036128,0.04,-1,0,0.608447030819661,0.7060095791403,1,552.60250417814,0.5,1
322,0.845560737485087,1,1,1,0.844246901857332,1.29417263625328,999,0,0.5,1
323,0.608994973890843,0.12,-1,0,0.611742306371525,0.705907564184599,0,2572.50664861567,0.5,1
324,0.675009003263529,1,1,1,0.67048014397551,1.29405297720223,999,0,0.5,1
325,0.640114116101306,1,1,1,0.635307119553545,1.29419990439965,999,0,0.5,1
326,0.663572644562562,1,-1,1,0.658798469134126,1.29403597470628,999,0,0.5,1
327,0.625384050590333,0.08,1,0,0.620923652391866,0.705995784664992,1,520.07577337281,0.5,1
328,0.82134057640832,1,-1,1,0.82351637211832,1.29406388446114,999,0,0.5,1
329,0.892410800979068,0.08,-1,0,0.894140235277519,0.705875484009084,1,1520.66284057037,0.5,1
330,0.679040558339032,1,-1,1,0.682390871266762,1.29419188435895,999,0,0.5,1
331,0.667080140169319,1,-1,1,0.67063124159904,1.29418033549518,999,0,0.5,1
332,0.726367658189648,0.12,-1,0,0.729424898705474,0.705946381194735,1,755.112777855175,0.5,1
333,0.683425520158596,1,-1,1,0.68240466574025,1.29416301220044,999,0,0.5,1
334,0.865489039433263,0.12,1,0,0.870582800534976,0.705955042843925,1,601.347688141686,0.5,1
335,0.893499469009198,1,1,1,0.894029879475056,1.29400293212711,999,0,0.5,1
336,0.885662720695996,1,1,1,0.882398249705147,1.29421369887677,999,0,0.5,1
337,0.629574707525053,1,-1,1,0.627451005553667,1.29418193950369,999,0,0.5,1
338,0.779216552320817,1,-1,1,0.776467587795196,1.29408826539293,999,0,0.5,1
339,0.814368377498037,1,1,1,0.81378837991906,1.29414985932817,999,0,0.5,1
340,0.673657866485326,1,-1,1,0.663845001427035,1.29425604470816,999,0,0.5,1
341,0.787000133470993,0.04,-1,0,0.788268280086413,0.705899544140266,1,819.629217339752,0.5,1
342,0.607714622529827,1,-1,1,0.61179010583146,1.29418899714074,999,0,0.5,1
343,0.849410402764552,1,1,1,0.847237736550596,1.29412259117998,999,0,0.5,1
344,0.73742096556512,1,1,1,0.739804760056359,1.29422973896362,999,0,0.5,1
345,0.790830747785877,1,-1,1,0.788429643363997,1.29415114253607,999,0,0.5,1
346,0.797581113523955,0.08,1,0,0.794151784139103,0.705809398848942,1,728.09966668683,0.5,1
347,0.662683282729396,1,1,1,0.658873857544677,1.29417359865693,999,0,0.5,1
348,0.759729915143451,0.12,-1,0,0.762333062790276,0.705937398746755,0,966.29624758134,0.5,1
349,0.774894395411429,1,-1,1,0.770453838233152,1.29416686182049,999,0,0.5,1
350,0.671243696377772,1,1,1,0.666037681372472,1.29496373336224,999,0,0.5,1
351,0.763619156601341,0.12,1,0,0.763177733793782,0.705915584228933,1,755.10956983635,0.5,1
352,0.883316215992972,1,-1,1,0.882372585565463,1.29405329800284,999,0,0.5,1
353,0.678960823006452,1,1,1,0.674951478735238,1.29422364373022,999,0,0.5,1
354,0.749783144242543,0.12,1,0,0.748894677577482,0.705889278484392,1,594.063884460411,0.5,1
355,0.71769154232829,1,-1,1,0.717613299157165,1.29417552346786,999,0,0.5,1
356,0.632982231526568,0.04,1,0,0.63526156570515,0.70592969950485,1,452.970463782549,0.5,1
357,0.8377544981742,1,-1,1,0.835376091928993,1.29418739313223,999,0,0.5,1
358,0.764636064479839,1,-1,1,0.764642835372797,1.29416589941684,999,0,0.5,1
359,0.829346335708936,0.12,1,0,0.835189706112942,0.705902110554234,1,732.579983894539,0.5,1
360,0.780949703073411,1,-1,1,0.776454755727173,1.29416204979498,999,0,0.5,1
361,0.871296257946966,1,-1,1,0.870662680170426,1.29408313256499,999,0,0.5,1
362,0.73825761156473,1,-1,1,0.741233931843453,1.2941867515292,999,0,0.5,1
363,0.707316693775228,0,1,0,0.708467241329345,0.705943814782586,1,561.109845726605,0.5,1
364,0.827514236877882,1,1,1,0.81962087649481,1.29420920765187,999,0,0.5,1
365,0.617420693979716,1,1,1,0.611685845264219,1.29431122260758,999,0,0.5,1
366,0.872557097348208,0.04,1,0,0.870473407139798,0.705942210774083,1,464.07758269379,0.5,1
367,0.87307094230619,1,-1,1,0.870609106277698,1.29425187428387,999,0,0.5,1
368,0.741059882208001,1,-1,1,0.74567896085864,1.29417969389215,999,0,0.5,1
369,0.666757196848712,1,1,1,0.670599803026562,1.29419092195167,999,0,0.5,1
370,0.646214347725336,1,1,1,0.647142779233036,1.29418450591766,999,0,0.5,1
371,0.807496458688894,0.08,1,0,0.808453446854401,0.705872917596935,1,760.483961516002,0.5,1
372,0.603538275997119,1,1,1,0.599917233148517,1.29426406475068,999,0,0.5,1
373,0.732461521984302,0.12,-1,0,0.723433926066718,0.705796887581528,0,617.775304041061,0.5,1
374,0.69698689876436,1,-1,1,0.695374038798036,1.29405073158887,999,0,0.5,1
375,0.821749620711193,0.12,-1,0,0.823581494871178,0.705922641867801,1,2412.4698847354,0.5,1
376,0.647671406100929,1,1,1,0.639726484429048,1.29414793451724,999,0,0.5,1
377,0.841703380589522,1,1,1,0.847040764278063,1.29429165369947,999,0,0.5,1
378,0.860039856292464,1,-1,1,0.860792893599864,1.29427240559562,999,0,0.5,1
379,0.773517722925947,1,1,1,0.776480419865038,1.29414697211359,999,0,0.5,1
380,0.818722062330512,1,-1,1,0.817260738036566,1.29419220515774,999,0,0.5,1
381,0.796940656850074,1,1,1,0.79998492231789,1.29409371902329,999,0,0.5,1
382,0.625607693067847,1,1,1,0.623491991183982,1.29411745835205,999,0,0.5,1
383,0.876342187784755,0.12,-1,0,0.882405628144625,0.705932586721246,0,1085.93573057806,0.5,1
384,0.689396192025548,1,1,1,0.694117458351684,1.29422428533326,999,0,0.5,1
385,0.638013548550229,1,-1,1,0.635339520529669,1.29410045585973,999,0,0.5,1
386,0.690698728650454,0.08,1,0,0.694105267886698,0.705865539155639,1,538.295708634905,0.5,1
387,0.870938202334381,1,1,1,0.87053050985196,1.29427400960412,999,0,0.5,1
388,0.660056020179513,0.04,1,0,0.661032853307916,0.70592520827995,0,783.156945839437,0.5,1
389,0.610861727600559,1,-1,1,0.611751930424361,1.29427144319016,999,0,0.5,1
390,0.773877746128039,1,-1,1,0.776499667970711,1.29406356365871,999,0,0.5,1
391,0.852744619198513,0.08,1,0,0.847096583782331,0.705921679462335,1,812.611679108159,0.5,1
392,0.689136464164585,1,1,1,0.693927222913771,1.29416204979498,999,0,0.5,1
393,0.672297500724055,1,1,1,0.670609747881826,1.29405361880345,999,0,0.5,1
394,0.606607293738156,0,1,0,0.611856190991602,0.70598744382005,1,622.276794163554,0.5,1
395,0.888662534049937,1,-1,1,0.894234550989495,1.29408441577107,999,0,0.5,1
396,0.75327510300322,1,1,1,0.753021792063009,1.29417841068425,999,0,0.5,1
397,0.657551451827647,1,1,1,0.658900163287399,1.29412323278302,999,0,0.5,1
398,0.602494864417555,1,1,1,0.600138265554051,1.2941306112225,999,0,0.5,1
399,0.623856656353596,0.12,1,0,0.62352342975646,0.705918471443511,1,1238.63158806489,0.5,1
400,0.895342489746492,1,1,1,0.894236796602854,1.2942005460045,999,0,0.5,1
401,0.671005463816107,0.04,-1,0,0.670593386994369,0.705892486503217,0,455.314562153944,0.5,1
402,0.899632448197206,1,-1,1,0.894144084897562,1.29411713755144,999,0,0.5,1
403,0.855182192661187,0,-1,0,0.857196706007016,0.70591622583197,1,551.497021355317,0.5,1
404,0.659520564207616,1,1,1,0.658853967835967,1.2940241050419,999,0,0.5,1
405,0.736944180262064,1,-1,1,0.741101119918312,1.29410430547978,999,0,0.5,1
406,0.874832422427438,1,1,1,0.870584725345907,1.29419252596199,999,0,0.5,1
407,0.86076160245126,1,-1,1,0.858832474119481,1.29420920765187,999,0,0.5,1
408,0.676599506410258,0.04,-1,0,0.682363923919183,0.705873238397544,1,580.754461550896,0.5,1
409,0.759357076443079,1,1,1,0.764719506991241,1.29419477157353,999,0,0.5,1
410,0.824460425676616,0.08,-1,0,0.814685983208619,0.705922000262944,0,1167.71290809993,0.5,1
411,0.612360171168693,1,-1,1,0.611732682318689,1.29419092195167,999,0,0.5,1
412,0.843486374469355,1,1,1,0.847019912165706,1.2941822603043,999,0,0.5,1
413,0.834200299257939,0.04,-1,0,0.835245204814782,0.705961779680365,1,1331.55085188992,0.5,1
414,0.673218941370571,1,-1,1,0.663814525261841,1.29412676160246,999,0,0.5,1
415,0.710903726425244,0,1,0,0.705965629300408,0.705934832332787,1,1401.80868025345,0.5,1
416,0.70335547019164,1,1,1,0.705937077944327,1.2941367064559,999,0,0.5,1
417,0.696280733507351,0.08,-1,0,0.694061638847415,0.705918150642901,0,1030.35875259411,0.5,1
418,0.830805071471455,1,-1,1,0.835342086944365,1.29419926279843,999,0,0.5,1
419,0.687957374273542,1,1,1,0.682371943961698,1.29416301220044,999,0,0.5,1
420,0.774162259070775,0.08,1,0,0.77652661531647,0.705910451400996,0,990.7294710938,0.5,1
421,0.873746403863267,1,1,1,0.870605898260692,1.29421145326342,999,0,0.5,1
422,0.789796466706908,1,1,1,0.78843798420894,1.29419733798568,999,0,0.5,1
423,0.628204523385514,1,1,1,0.623492953589448,1.2941960547796,999,0,0.5,1
424,0.841438164547665,1,-1,1,0.843625188070291,1.29414825531967,999,0,0.5,1
425,0.870803251934664,1,1,1,0.870586650155019,1.29419990440147,999,0,0.5,1
426,0.674436269416512,0.12,1,0,0.670628033580215,0.705891524097751,1,467.897369104321,0.5,1
427,0.737936960436715,1,1,1,0.741062623710604,1.29423679660249,999,0,0.5,1
428,0.730502085462501,1,1,1,0.729467565339291,1.29420696204033,999,0,0.5,1
429,0.863431638543601,1,-1,1,0.859950147409108,1.29417424026178,999,0,0.5,1
430,0.674591885447994,0.04,1,0,0.670622900754097,0.705948626808095,1,1225.3972327635,0.5,1
431,0.732130565884093,1,1,1,0.729471094156906,1.29410783429921,999,0,0.5,1
432,0.811002261027749,1,1,1,0.811765724898578,1.29416365380348,999,0,0.5,1
433,0.730178246077641,1,-1,1,0.729460507702242,1.29414697211178,999,0,0.5,1
434,0.854378221973515,0.08,1,0,0.858847551800864,0.705919433848976,1,1481.17631584864,0.5,1
435,0.602111265850988,1,1,1,0.593685659199764,1.29415948337919,999,0,0.5,1
436,0.726459924284973,0.04,-1,0,0.725288801773786,0.705925849882988,0,481.389007407415,0.5,1
437,0.854333563756791,1,-1,1,0.852411947940709,1.29413221523282,999,0,0.5,1
438,0.674677283772258,0.12,-1,0,0.670658509747227,0.705966270903446,0,617.737449434571,0.5,1
439,0.808795144031226,1,1,1,0.811772140934409,1.29419765878811,999,0,0.5,1
440,0.833121278510876,0,-1,0,0.835288513051637,0.70599385985588,0,1402.65559686668,0.5,1
441,0.702144161191973,1,1,1,0.705835383791054,1.29416461620713,999,0,0.5,1
442,0.890376302203794,1,1,1,0.894244175042331,1.29415435055307,999,0,0.5,1
443,0.898627186763858,1,-1,1,0.894106230291072,1.29418514752069,999,0,0.5,1
444,0.7264478779167,0,1,0,0.729417841068425,0.705905639373668,1,451.605131545875,0.5,1
445,0.695149120413799,1,-1,1,0.694060034840732,1.294198941996,999,0,0.5,1
446,0.730352836278355,0,-1,0,0.730912456410806,0.705880937639449,1,384.396202991411,0.5,1
447,0.683358480643953,1,1,1,0.682320936484757,1.29418803473709,999,0,0.5,1
448,0.756521844166114,1,1,1,0.752973350998218,1.29417006983931,999,0,0.5,1
449,0.765731830820431,1,1,1,0.757949627710332,1.29403404989716,999,0,0.5,1
450,0.898198231542778,0.12,-1,0,0.894191242754459,0.70597397014717,0,476.567998743121,0.5,1
451,0.741993828928368,1,1,1,0.741183886770159,1.29430031534866,999,0,0.5,1
452,0.779670579226774,1,1,1,0.777947125456194,1.29413414004193,999,0,0.5,1
453,0.820382521885332,1,-1,1,0.823623840702567,1.29423904221403,999,0,0.5,1
454,0.647667202739138,1,-1,1,0.647083110108724,1.29421915250532,999,0,0.5,1
455,0.812680587794764,1,-1,1,0.806701869310928,1.29414633050874,999,0,0.5,1
456,0.777389709579532,1,-1,1,0.776480099064429,1.29417905228729,999,0,0.5,1
457,0.89611291169631,1,-1,1,0.892635354277445,1.29418418511523,999,0,0.5,1
458,0.602905023567284,0.08,1,0,0.599940651676661,0.705905639373668,1,410.237104571934,0.5,1
459,0.681133872737611,1,-1,1,0.682379643203603,1.29417135304539,999,0,0.5,1
460,0.7295676311107,0.08,-1,0,0.729486171840108,0.705819022901778,1,778.203766854858,0.5,1
461,0.717325998768947,1,1,1,0.717596938267889,1.2941014182652,999,0,0.5,1
462,0.717755334706959,0.12,1,0,0.717706010862457,0.705922000262944,1,3802.48974236383,0.5,1
463,0.873226689879793,1,1,1,0.870712083638864,1.29420888684945,999,0,0.5,1
464,0.801688472337814,1,-1,1,0.800052290685926,1.29422685174723,999,0,0.5,1
465,0.622819703854335,0,1,0,0.62344804134591,0.706064436239103,0,1023.59336453628,0.5,1
466,0.808707033504156,1,1,1,0.811203038634631,1.29419220515956,999,0,0.5,1
467,0.727179389735086,0.08,-1,0,0.729302994042882,0.705956005247572,0,562.837363138897,0.5,1
468,0.777273401510852,1,-1,1,0.769536024432455,1.29415531295672,999,0,0.5,1
469,0.788579802502398,1,-1,1,0.789010936132399,1.2942005460045,999,0,0.5,1
470,0.702855980727434,1,-1,1,0.705875484009084,1.29493101158369,999,0,0.5,1
471,0.897449038153174,0.04,-1,0,0.894105909488644,0.705828967755224,1,513.592049250292,0.5,1
472,0.855187357774359,1,-1,1,0.849725874906653,1.29420888684945,999,0,0.5,1
473,0.748261789333971,0.08,-1,0,0.75058979401183,0.706013428762162,1,2207.68448506533,0.5,1
474,0.616353827977972,1,1,1,0.611742306373344,1.29417039064174,999,0,0.5,1
475,0.60135711496,1,-1,1,0.593510501445053,1.2942005460045,999,0,0.5,1
476,0.617952888699209,1,1,1,0.623541715454849,1.29426246074036,999,0,0.5,1
477,0.759514938764417,1,-1,1,0.764638023347288,1.29408858619536,999,0,0.5,1
478,0.72021274232391,0,-1,0,0.717633830468912,0.705904356167594,0,692.521148856031,0.5,1
479,0.852932210419511,1,-1,1,0.853917149741392,1.29412964881885,999,0,0.5,1
480,0.768919751170705,1,-1,1,0.75578261190276,1.29412836561096,999,0,0.5,1
481,0.825291772098816,0.12,1,0,0.815566263205255,0.705884787261311,1,540.641090212375,0.5,1
482,0.876987118968,1,-1,1,0.884524202887405,1.29418290190915,999,0,0.5,1
483,0.847149902467307,1,1,1,0.847735300061686,1.29411649594658,999,0,0.5,1
484,0.679816690329645,1,1,1,0.682261267360445,1.29417071144053,999,0,0.5,1
485,0.816213698840731,0.12,1,0,0.811713755016171,0.706019523993746,1,459.956563443484,0.5,1
486,0.884753309151727,1,1,1,0.878898944241882,1.29414312249173,999,0,0.5,1
487,0.846221069913776,0.08,-1,0,0.847045255502962,0.705903393762128,0,551.770023643257,0.5,1
488,0.739392236686775,1,-1,1,0.741146994569135,1.29419637558203,999,0,0.5,1
489,0.675755315242194,1,-1,1,0.670521848202043,1.29414697211359,999,0,0.5,1
490,0.786490651968434,1,1,1,0.788228500668993,1.29414985932817,999,0,0.5,1
491,0.66918408536528,1,-1,1,0.664450995927837,1.2941456889057,999,0,0.5,1
492,0.781055734948226,0,-1,0,0.776600720520946,0.70587644641455,1,381.333187902783,0.5,1
493,0.679468217778309,1,1,1,0.683025417123645,1.29417103224296,999,0,0.5,1
494,0.687183066044227,1,-1,1,0.673819048566656,1.29419958359904,999,0,0.5,1
495,0.624626655203873,0.12,-1,0,1.07481930841459,0.705880937639449,1,722.937645763523,0.5,1
496,0.867138560654245,1,-1,1,1.32942521950827,1.29406356365689,999,0,0.5,1
497,0.872370554620007,1,1,1,0.87055296597282,1.29410590948828,999,0,0.5,1
498,0.833580430434614,1,-1,1,0.835412984130016,1.29416846583081,999,0,0.5,1
499,0.620997762069386,0,1,0,0.623438738095501,0.705890561690467,1,479.364748380249,0.5,1
500,0.840138716069324,1,-1,1,0.835407209697223,1.29408120775406,999,0,0.5,1
501,0.750004540017262,0.04,1,0,0.75299067429296,0.705905639373668,1,704.318633128423,0.5,1
502,0.616333416289659,1,1,1,0.608742168427852,1.29416846582899,999,0,0.5,1
503,0.789751523860539,1,-1,1,0.788124560902361,1.29415242574214,999,0,0.5,1
504,0.859308357492879,1,-1,1,0.858780504235256,1.29417488186482,999,0,0.5,1
505,0.825185166740807,1,1,1,0.823563529973399,1.29411136311865,999,0,0.5,1
506,0.710187156912015,1,1,1,0.701753502353313,1.2941915635547,999,0,0.5,1
507,0.656379491270047,1,1,1,0.660171821416952,1.29418290190733,999,0,0.5,1
508,0.891531379658597,1,1,1,0.88764367908334,1.29417648587332,999,0,0.5,1
509,0.77929393378499,1,-1,1,1.28243225469123,1.2941652578138,999,0,0.5,1
510,0.887538485630535,1,-1,1,0.882374510376394,1.29413638565529,999,0,0.5,1
511,0.822790503363592,1,-1,1,0.82357187082016,1.29416429540652,999,0,0.5,1
512,0.795566806297812,1,1,1,0.79999807519016,1.29416654101988,999,0,0.5,1
513,0.693273396401987,1,-1,1,0.694043353147208,1.29416076658708,999,0,0.5,1
514,0.805197174589731,1,-1,1,0.80009591972339,1.29416718262291,999,0,0.5,1
515,0.850187890996539,0.04,1,0,0.847084393315527,0.705938040349793,1,540.663546335054,0.5,1
516,0.633777610538975,1,1,1,0.635357806228058,1.29415884177797,999,0,0.5,1
517,0.744106783898898,0.08,-1,0,0.737122215841737,0.705930661910315,0,686.560331581859,0.5,1
518,0.653084013563698,1,-1,1,0.658752915285731,1.2940953230318,999,0,0.5,1
519,0.851976198999049,1,-1,1,0.849110897956052,1.29419637558203,999,0,0.5,1
520,0.797848936122159,1,1,1,0.800087899679056,1.29412964881703,999,0,0.5,1
521,0.613057619145509,0.08,1,0,0.611739739959376,0.705897940131763,1,402.800278456198,0.5,1
522,0.800925708937117,1,-1,1,0.800015398484902,1.29405169399433,999,0,0.5,1
523,0.886460819144496,0.04,1,0,0.882361999107161,0.705921037859298,1,1428.32101989188,0.5,1
524,0.755457137960765,1,1,1,0.752861070386643,1.2940969270403,999,0,0.5,1
525,0.626113493423645,0,1,0,0.622110618858642,0.705836987799557,0,1524.92405018711,0.5,1
526,0.654898996063078,1,1,1,0.658884444002979,1.29413831046622,999,0,0.5,1
527,0.724893897423452,1,1,1,0.727812228320545,1.29422813495512,999,0,0.5,1
528,0.869406609436108,0.08,1,0,0.870623863158471,0.705907884987028,1,970.862860460329,0.5,1
529,0.809212918655421,1,1,1,0.811726907888442,1.29415595456157,999,0,0.5,1
530,0.720221362959533,1,1,1,0.717711464491003,1.29404944838097,999,0,0.5,1
531,0.624159163843335,0.04,1,0,0.623567700396961,0.705913338615574,0,1203.71424263612,0.5,1
532,0.688700435729367,1,-1,1,0.694081207753698,1.29330871714592,999,0,0.5,1
533,0.827076597237694,0.04,1,0,0.823581815673606,0.705995784664992,1,1030.67410071344,0.5,1
534,0.749744396842521,1,1,1,0.745619291734329,1.29409339822087,999,0,0.5,1
535,0.830893825541327,0,1,0,0.835334708503069,0.705936757141899,1,1243.29925349593,0.5,1
536,0.71637750028819,1,1,1,0.717646983341183,1.29417520266543,999,0,0.5,1
537,0.794737848245882,0.08,1,0,0.799967599023148,0.705924245874485,1,831.227483728071,0.5,1
538,0.848222626093357,1,-1,1,0.842258572625724,1.2941485761221,999,0,0.5,1
539,0.798869460105389,0,-1,0,0.799975619067482,0.705813248470804,1,821.116133440228,0.5,1
540,0.739151145559183,1,-1,1,0.741213400529887,1.29417808988183,999,0,0.5,1
541,0.751139333357981,1,-1,1,0.752798193245326,1.29417199464842,999,0,0.5,1
542,0.86208832009954,0.04,1,0,0.858812263608343,0.705932907521856,1,654.796467331835,0.5,1
543,0.844708679807926,1,1,1,0.846947090167305,1.29413285683586,999,0,0.5,1
544,0.796531575259054,1,1,1,0.800044270641592,1.29414793451724,999,0,0.5,1
545,0.843716322267071,1,1,1,0.847147591259272,1.29427657601809,999,0,0.5,1
546,0.684086525144659,0.08,-1,0,0.682465938874884,0.705852707085796,0,443.047424121687,0.5,1
547,0.841379525684454,1,1,1,0.844118581158909,1.29422909736059,999,0,0.5,1
548,0.689715209413152,1,-1,1,0.694404896716151,1.29418707232981,999,0,0.5,1
549,0.855737906679178,1,1,1,0.858777937823106,1.2941912427541,999,0,0.5,1
550,0.798182464790725,0.04,-1,0,0.800045233045239,0.705930020307278,0,758.381747664316,0.5,1
551,0.603064678921049,1,-1,1,0.600021814518186,1.29408184935892,999,0,0.5,1
552,0.706150236004767,1,-1,1,0.70593643634129,1.29413285683586,999,0,0.5,1
553,0.656013189472205,1,1,1,0.658812263609434,1.29418322270976,999,0,0.5,1
554,0.733253278758052,1,-1,1,0.722531831554079,1.29412130797391,999,0,0.5,1
555,0.685031787165518,0.08,-1,0,0.682398249706239,0.705901148148769,1,969.473468092474,0.5,1
556,0.613552950280913,1,-1,1,0.609002659444741,1.29423615499945,999,0,0.5,1
557,0.860679548087965,1,-1,1,0.858889576831643,1.29409788944577,999,0,0.5,1
558,0.878865969673564,1,-1,1,0.882398570507576,1.2941867515292,999,0,0.5,1
559,0.607118825957134,0,-1,0,0.611846246138157,0.70592071705687,1,668.71669676766,0.5,1
560,0.73878086356367,1,1,1,0.743586691860401,1.29413253603343,999,0,0.5,1
561,0.648126395713437,1,-1,1,0.647082789306296,1.29414953852756,999,0,0.5,1
562,0.861831045555829,1,1,1,0.858844022983249,1.29428427526,999,0,0.5,1
563,0.719774245482847,0.08,1,0,0.71148438176715,0.706037168090916,1,665.233110590634,0.5,1
564,0.74975097387113,1,-1,1,0.752978804628583,1.29421947330775,999,0,0.5,1
565,0.679963664975738,0.12,-1,0,1.22523875670049,0.705924566676913,1,502.0900233867,0.5,1
566,0.781729042871882,1,1,1,0.773705163945124,1.29418739313223,999,0,0.5,1
567,0.793508267313503,1,1,1,0.788236199910898,1.29407318771155,999,0,0.5,1
568,0.60559284385323,1,-1,1,0.600102656559102,1.29426310234521,999,0,0.5,1
569,0.851145972432713,1,-1,1,0.84525357774146,1.29406228045082,999,0,0.5,1
570,0.860866133903736,1,1,1,0.855429409179123,1.29425347829419,999,0,0.5,1
571,0.725543168428123,1,1,1,0.729781951053155,1.29420664123791,999,0,0.5,1
572,0.756696199696486,0.12,1,0,0.751499266967585,0.705905639373668,1,445.546148934227,0.5,1
573,0.796199160063324,1,1,1,0.800006736835712,1.29404591956336,999,0,0.5,1
574,0.616019420591045,1,-1,1,0.608606790088743,1.29417231544903,999,0,0.5,1
575,0.804773231840423,1,1,1,0.800046516253133,1.29415114253425,999,0,0.5,1
576,0.619485983468568,1,-1,1,0.623452211766562,1.29417648587332,999,0,0.5,1
577,0.617435710156545,1,-1,1,0.611767008107563,1.29412868641339,999,0,0.5,1
578,0.682358116596607,0.08,1,0,0.683073858186617,0.705912697012536,1,541.130312878522,0.5,1
579,0.882636047483206,1,-1,1,0.882291422723938,1.29417263625328,999,0,0.5,1
580,0.660659531599889,1,1,1,0.658864554294269,1.29416782422595,999,0,0.5,1
581,0.664464573617449,0,1,0,0.660722958818951,0.705813248470804,1,730.445048264301,0.5,1
582,0.810481526756205,1,1,1,0.81180069229049,1.29412162877452,999,0,0.5,1
583,0.774625265876177,1,1,1,0.774282286291054,1.2942095284543,999,0,0.5,1
584,0.616450807413694,0.12,-1,0,0.61178529380777,0.705821268515137,0,647.143100035464,0.5,1
585,0.716585509308271,1,-1,1,0.717630622451907,1.29412194957695,999,0,0.5,1
586,0.89913070845357,1,1,1,0.894111683921437,1.29419830039114,999,0,0.5,1
587,0.709057495528246,1,-1,1,0.705884787259492,1.29420984925491,999,0,0.5,1
588,0.764571956953325,1,-1,1,0.764440088671108,1.2942326261782,999,0,0.5,1
589,0.817341363960799,0.04,1,0,0.811724983077511,0.705913980218611,1,520.166239466562,0.5,1
590,0.879463541740508,1,-1,1,0.882419422621751,1.29407479172005,999,0,0.5,1
591,0.701825664831228,1,-1,1,0.705845007843891,1.2941428016893,999,0,0.5,1
592,0.794682031933917,1,1,1,0.800053253091392,1.29418482671827,999,0,0.5,1
593,0.672290878795126,1,-1,1,0.676561903510446,1.29410494708463,999,0,0.5,1
594,0.66102858857163,1,1,1,0.658840814965515,1.29416493701137,999,0,0.5,1
595,0.614639636149154,1,1,1,0.609041797259124,1.2941793730879,999,0,0.5,1
596,0.81219671598578,0.04,1,0,0.811757384053635,0.705844045438425,1,374.098787689945,0.5,1
597,0.872412899224472,1,1,1,0.862158225838357,1.29424096702496,999,0,0.5,1
598,0.704306155148248,0.12,-1,0,1.17960791610494,0.705911093004033,0,530.326351617987,0.5,1
599,0.765371603025439,1,-1,1,0.764667216306407,1.29421337807435,999,0,0.5,1
600,0.863419631539578,1,-1,1,0.855467584588041,1.29419188435713,999,0,0.5,1
601,0.817538139223895,1,1,1,1.34125831277561,1.29426791437254,999,0,0.5,1
602,0.627012204639913,1,-1,1,0.623576041241904,1.2941867515292,999,0,0.5,1
603,0.869996377690252,0.04,1,0,0.869325257684977,0.705897298528726,1,432.895011212167,0.5,1
604,0.895134782509541,1,1,1,0.887337634216237,1.29417039063992,999,0,0.5,1
605,0.813312340376028,0.08,-1,0,0.811786897815182,0.705903714562737,0,1570.1214876226,0.5,1
606,0.614198239187198,1,1,1,0.611783689797448,1.29401865141335,999,0,0.5,1
607,0.836262438147323,0.04,-1,0,0.833858058058468,0.705903393762128,1,1294.92106673024,0.5,1
608,0.849790013976895,1,1,1,0.848630016136667,1.29417135304539,999,0,0.5,1
609,0.773335695893438,1,-1,1,0.773995489527806,1.29424642065351,999,0,0.5,1
610,0.777676908579444,1,-1,1,0.776507046410188,1.29417969389033,999,0,0.5,1
611,0.742764724945648,1,1,1,0.741344287644097,1.294132215231,999,0,0.5,1
612,0.683132804357331,0.04,-1,0,0.679624597794827,0.705916867435008,0,776.12465072707,0.5,1
613,0.703194034491798,1,-1,1,0.70580522842647,1.29425155348144,999,0,0.5,1
614,0.727315871012669,1,-1,1,0.729337640630547,1.29407479172005,999,0,0.5,1
615,0.731413553901486,0.08,-1,0,0.725529723886211,0.705914621823467,1,457.092766240748,0.5,1
616,0.869229506364128,1,-1,1,0.870603331846723,1.29413446084436,999,0,0.5,1
617,0.621902532316772,1,1,1,0.623470818269197,1.2941928467626,999,0,0.5,1
618,0.811091155234516,1,1,1,0.811907198469271,1.29417905228729,999,0,0.5,1
619,0.707830750777497,0.04,-1,0,0.705852707085796,0.705918792245939,0,962.942265308811,0.5,1
620,0.79085291827814,1,-1,1,0.788274375319816,1.29422781415451,999,0,0.5,1
621,0.699366620434727,1,-1,1,0.694321809063695,1.29416301219862,999,0,0.5,1
622,0.652643105019482,1,1,1,0.647067711624914,1.294198941996,999,0,0.5,1
623,0.81342647936912,0,-1,0,0.815400087898524,0.705905639373668,1,503.833901686448,0.5,1
624,0.86565010544792,1,-1,1,0.870685457093714,1.29415242574214,999,0,0.5,1
625,0.711294009066218,1,-1,1,0.705778281078892,1.29418161870126,999,0,0.5,1
626,0.87021098558139,0.04,-1,0,0.870449347006797,0.705888636881355,1,681.734190087809,0.5,1
627,0.859303613803146,1,1,1,0.858852043025763,1.29422043571321,999,0,0.5,1
628,0.668709848664484,0.04,1,0,0.670650168902284,0.705847253455431,1,530.508567011566,0.5,1
629,0.831137767442793,1,1,1,0.83537448792049,1.29416301220044,999,0,0.5,1
630,0.872562370177616,0.04,1,0,0.866116598603185,0.7058453286445,1,1435.03379646427,0.5,1
631,0.639488906489674,1,1,1,0.63528145541386,1.29412676160246,999,0,0.5,1
632,0.801331772517135,0.04,1,0,0.799982676704531,0.705913017813145,0,489.292279264191,0.5,1
633,0.772756086432433,1,1,1,0.776483627883863,1.29414600970813,999,0,0.5,1
634,0.731161501725814,1,-1,1,0.729375174436427,1.29415691696704,999,0,0.5,1
635,0.730263461562391,1,-1,1,0.729525951257529,1.29415178413728,999,0,0.5,1
636,0.61713451369379,1,1,1,0.608932724666374,1.2942432126365,999,0,0.5,1
637,0.811796967160865,1,-1,1,0.811752892830555,1.29418803473709,999,0,0.5,1
638,0.825445772054862,1,-1,1,0.823821454578137,1.29424192943043,999,0,0.5,1
639,0.645832090937897,1,-1,1,0.64708631812573,1.29410077666034,999,0,0.5,1
640,0.672110509193554,1,-1,1,0.668038521873314,1.29416878663142,999,0,0.5,1
641,0.708946674605503,0.04,-1,0,0.70586746396657,0.705910772201605,1,475.749954286584,0.5,1
642,0.672042783996751,1,-1,1,0.670579913319671,1.29416397460591,999,0,0.5,1
643,0.613497001079138,1,1,1,0.611800050686725,1.29424706225655,999,0,0.5,1
644,0.833055791335048,1,-1,1,0.826190254683752,1.29426727276768,999,0,0.5,1
645,0.822423646092193,1,-1,1,0.818148075670251,1.29418707233162,999,0,0.5,1
646,0.851275028623541,1,-1,1,0.84716587695948,1.29417808988183,999,0,0.5,1
647,0.606644084084195,1,-1,1,0.618010451720693,1.29415146333849,999,0,0.5,1
648,0.89710115181067,0.04,1,0,0.894164616209309,0.705922641865982,1,421.208845145884,0.5,1
649,0.852229093231422,1,-1,1,0.844498410428059,1.2940850573741,999,0,0.5,1
650,0.747168358577932,0.12,-1,0,0.753032699321921,0.705895373717794,1,705.985839811547,0.5,1
651,0.869414328478139,1,1,1,0.870602369441258,1.2941607665889,999,0,0.5,1
652,0.753532961607759,1,1,1,0.752951536480396,1.29418643072677,999,0,0.5,1
653,0.64633194543716,0.12,-1,0,0.647151440882226,0.705960817274899,1,1500.48248582789,0.5,1
654,0.810994597433315,1,1,1,0.803346603832324,1.294198941996,999,0,0.5,1
655,0.643207635075685,1,1,1,0.646960884641885,1.29411777915266,999,0,0.5,1
656,0.82284403024054,1,1,1,0.823539149041608,1.29416622021745,999,0,0.5,1
657,0.837303069547591,1,-1,1,0.835322518036264,1.29408537817653,999,0,0.5,1
658,0.795194016333697,0.04,1,0,0.800056781909007,0.705908205787637,0,771.872423561945,0.5,1
659,0.699085256571626,1,1,1,0.694161728994004,1.29417199464842,999,0,0.5,1
660,0.845694129823812,1,-1,1,0.847086638927067,1.29422011491079,999,0,0.5,1
661,0.735227207313396,1,-1,1,1.19996214539424,1.29420150840997,999,0,0.5,1
662,0.827361375006652,1,-1,1,1.31851378966348,1.29406901728726,999,0,0.5,1
663,0.614059987362561,1,1,1,0.611761875277807,1.29422236052233,999,0,0.5,1
664,0.606533674806937,0.12,1,0,0.610855289538449,0.705815173281735,1,511.163900820975,0.5,1
665,0.612053890388059,1,-1,1,0.611737173545407,1.29420535803001,999,0,0.5,1
666,0.820450092985264,1,-1,1,0.823405695513429,1.29417873148486,999,0,0.5,1
667,0.762033821935911,1,1,1,0.764775968100366,1.29417680667575,999,0,0.5,1
668,0.704477043290577,1,1,1,0.701690304407748,1.29414536810509,999,0,0.5,1
669,0.728942088311858,0.12,1,0,0.729395064143318,0.705999313484426,1,408.725486737239,0.5,1
670,0.79835052322904,1,-1,1,0.800042987433699,1.29412996961946,999,0,0.5,1
671,0.857296348011342,0,-1,0,0.858942188317087,0.70594958921356,1,490.237040410648,0.5,1
672,0.74569436567085,1,1,1,0.741715134465267,1.29407511252066,999,0,0.5,1
673,0.719042472170462,1,-1,1,0.717638321693812,1.29417520266725,999,0,0.5,1
674,0.768607502210706,1,-1,1,0.764709882938405,1.29415627536218,999,0,0.5,1
675,0.634816707450143,0.04,-1,0,0.630011324303268,0.70591398022043,1,489.773481886004,0.5,1
676,0.888363771554485,1,1,1,0.894073187710092,1.29416750342352,999,0,0.5,1
677,0.742893363585561,1,1,1,0.741155656216506,1.29412130797209,999,0,0.5,1
678,0.709745100916775,0.12,1,0,0.718516676879517,0.705917188237436,1,387.11531860281,0.5,1
679,0.603541842504309,1,-1,1,0.600727899165577,1.29411168392107,999,0,0.5,1
680,0.895075996601817,1,-1,1,0.894155312958901,1.29407094209819,999,0,0.5,1
681,0.69633958938954,1,1,1,0.686244662660101,1.29408601978139,999,0,0.5,1
682,0.858553907306444,1,1,1,0.858888935226787,1.29413446084436,999,0,0.5,1
1,0.829851179898366,1,-1,1,0.835304549344997,1.30590569216695,999,0,0.9,1
2,0.765179607603192,1,1,1,0.764721884668134,1.29413614030045,999,0,0.9,1
3,0.842765705674395,1,1,1,0.847096878091733,1.29417367403269,999,0,0.9,1
4,0.614989725153462,1,1,1,0.611769038584669,1.29413774430611,999,0,0.9,1
5,0.746199703448819,1,1,1,0.741214540247086,1.29417335323154,999,0,0.9,1
6,0.799748128037005,1,1,1,0.800033106676636,1.29415346356149,999,0,0.9,1
7,0.825163528961767,1,1,1,0.823530827063792,1.29416084198746,999,0,0.9,1
8,0.708246692726156,1,1,1,0.705861614091617,1.29414512273209,999,0,0.9,1
9,0.772169106511983,1,1,1,0.776525762255574,1.29416950361801,999,0,0.9,1
10,0.808122066641439,1,1,1,0.811778919259496,1.29418297726545,999,0,0.9,1
11,0.673010728931981,1,1,1,0.670561620122697,1.29419677171407,999,0,0.9,1
12,0.676811922826357,1,1,1,0.682319623148516,1.29420318773668,999,0,0.9,1
13,0.781110325561933,1,1,1,0.776506514187759,1.29415667157278,999,0,0.9,1
14,0.82420268767579,1,1,1,0.82354205510336,1.29415891718071,999,0,0.9,1
15,0.831098627763773,1,1,1,0.835236539505388,1.29416950361801,999,0,0.9,1
16,0.83166445109984,1,1,1,0.835326043020729,1.29416148358976,999,0,0.9,1
17,0.644033771922872,1,1,1,0.647054275701635,1.29417720284513,999,0,0.9,1
18,0.76327390963284,1,1,1,0.764708731821798,1.29414865154453,999,0,0.9,1
19,0.874131791051256,1,1,1,0.870598448092466,1.29414800994226,999,0,0.9,1
20,0.843435451364769,1,1,1,0.847087254057811,1.29418233566318,999,0,0.9,1
21,0.706637190366056,1,1,1,0.705947267993423,1.29416180439088,999,0,0.9,1
22,0.700174389084753,1,1,1,0.705892731801271,1.29417591964059,999,0,0.9,1
23,0.724318729410865,1,1,1,0.729396868211069,1.29417239082818,999,0,0.9,1
24,0.787886133233351,1,1,1,0.788234361907286,1.29416789961235,999,0,0.9,1
25,0.801014934734408,1,1,1,0.800005196978304,1.29417624044171,999,0,0.9,1
26,0.668347127492404,1,1,1,0.670596587445914,1.29413838590838,999,0,0.9,1
27,0.848382224430797,1,1,1,0.847062873171922,1.29417656124284,999,0,0.9,1
28,0.898666823391345,1,1,1,0.894126965388125,1.29414672673775,999,0,0.9,1
29,0.79665327816473,1,1,1,0.800002309768132,1.29416886201574,999,0,0.9,1
30,0.808086336943982,1,1,1,0.811778277657226,1.29416180439085,999,0,0.9,1
31,0.775090302387197,1,1,1,0.776449732387675,1.294162125192,999,0,0.9,1
32,0.842865595458238,1,1,1,0.847092066074765,1.29417239082815,999,0,0.9,1
33,0.73705346463239,1,1,1,0.741221597871913,1.29417880685079,999,0,0.9,1
34,0.699034531194981,1,1,1,0.694089495816115,1.29413774430608,999,0,0.9,1
35,0.890673573148712,1,1,1,0.894124719780223,1.29416950361798,999,0,0.9,1
36,0.874713036306125,1,1,1,0.870634377819044,1.29416244599312,999,0,0.9,1
37,0.641651539675121,1,1,1,0.647095659047437,1.29417591964059,999,0,0.9,1
38,0.630363258444586,1,1,1,0.635292423062253,1.29416725801008,999,0,0.9,1
39,0.63414211633494,1,1,1,0.647063899735485,1.29416020038525,999,0,0.9,1
40,0.653358392283104,1,1,1,0.670592417031173,1.29410309778405,999,0,0.9,1
41,0.876507815603386,1,1,1,0.882363829544204,1.29414704753884,999,0,0.9,1
42,0.688511158726023,1,1,1,0.694104573469247,1.29417078682252,999,0,0.9,1
43,0.678047134987159,1,1,1,0.682353948869434,1.29418297726545,999,0,0.9,1
44,0.877215160864432,1,1,1,0.882368962362364,1.29415378436261,999,0,0.9,1
45,0.813908221271518,1,1,1,0.8117606335951,1.29416116278861,999,0,0.9,1
46,0.85762483913544,1,1,1,0.858802590533287,1.29417014522028,999,0,0.9,1
47,0.833395741048484,1,1,1,1.29420158373102,1.29417367403272,999,0,0.9,1
48,0.689148510755873,1,1,1,0.69405420769175,1.29421024536151,999,0,0.9,1
49,0.803621482609574,1,1,1,0.800005517779425,1.29418971408921,999,0,0.9,1
50,0.871222184575185,1,1,1,1.35298325803063,1.29414993474904,999,0,0.9,1
51,0.727132928194295,1,1,1,0.729413549869832,1.29418586447559,999,0,0.9,1
52,0.621156907162606,1,-1,1,0.623534099235485,1.29417239082818,999,0,0.9,1
53,0.803440384102222,1,1,1,0.800013858608963,1.29414993474916,999,0,0.9,1
54,0.893260440453377,1,1,1,0.894107396519075,1.29415699237393,999,0,0.9,1
55,0.794667735104781,1,1,1,0.799976004075461,1.29416854121473,999,0,0.9,1
56,0.71096370010865,1,1,1,0.705885032574088,1.29416854121473,999,0,0.9,1
57,0.637762416786891,0.04,-1,0,0.635327390385555,0.705903959840725,1,1618.3894115095,0.9,1
58,0.686274916191659,1,-1,1,0.682348174449089,1.29417239082818,999,0,0.9,1
59,0.810398521735611,1,1,1,0.811777636055012,1.29414833074338,999,0,0.9,1
60,0.653342604830851,1,1,1,0.658838584419982,1.29416052118654,999,0,0.9,1
61,0.655896399659265,1,-1,1,0.658857511686847,1.2941849020724,999,0,0.9,1
62,0.68842782209952,0.08,-1,0,0.694078909378732,0.705912621471498,0,519.620838728088,0.9,1
63,0.744799075540462,1,1,1,0.741203633008809,1.2941608419876,999,0,0.9,1
64,0.684096983321207,1,1,1,1.34122397180022,1.29415827557841,999,0,0.9,1
65,0.849770292499927,0,-1,0,0.847036567479336,0.705900110227276,0,3508.53074365546,0.9,1
66,0.651965336780423,1,1,1,0.647061974928647,1.29414448112971,999,0,0.9,1
67,0.782084172218509,1,1,1,0.776499777364052,1.29417142842476,999,0,0.9,1
68,0.657216037176137,0.04,1,0,0.658855586880009,0.705915829482592,1,577.589602963599,0.9,1
69,0.793241237276772,1,1,1,1.29411592982933,1.29416789961238,999,0,0.9,1
70,0.828065705539154,1,1,1,0.823563227977957,1.29419292210036,999,0,0.9,1
71,0.753169114439442,1,-1,1,0.752964202443536,1.29416469160105,999,0,0.9,1
72,0.731223097174353,1,1,1,0.729394943404259,1.29416822041344,999,0,0.9,1
73,0.793250080055212,1,-1,1,0.788213509833895,1.29418233566321,999,0,0.9,1
74,0.728941357824109,0.12,-1,0,0.729489579737674,0.705962024845348,1,6766.01792123438,0.9,1
75,0.620682809711051,1,1,1,0.623560725729021,1.29416437079999,999,0,0.9,1
76,0.814302494858648,1,1,1,0.811775069646046,1.29416533320318,999,0,0.9,1
77,0.665042693824365,1,1,1,0.670600757860484,1.2941755988395,999,0,0.9,1
78,0.817293258125981,0.08,1,0,0.823564831983504,0.705905243045436,1,3647.35358315602,0.9,1
79,0.727469147296232,1,1,1,0.729456216420203,1.29417046602157,999,0,0.9,1
80,0.603374130071456,0,1,0,0.611771925794983,0.705908130255466,0,509.93713581056,0.9,1
81,0.846784749765637,1,1,1,1.38827811918145,1.29416148358973,999,0,0.9,1
82,0.829989097635698,1,-1,1,0.835307757356304,1.29416437079976,999,0,0.9,1
83,0.813916979811207,0.04,-1,0,0.823532110268388,0.705922566306299,1,1770.38659102618,0.9,1
84,0.814570711220576,1,1,1,0.823545583915802,1.29417976925424,999,0,0.9,1
85,0.680252448839805,1,1,1,0.682390520198396,1.29415570916944,999,0,0.9,1
86,0.645675131653554,1,1,1,0.658843396436851,1.2941755988395,999,0,0.9,1
87,0.818782447688369,1,1,1,0.823517995018619,1.29418009005531,999,0,0.9,1
88,0.869941850175446,0.12,1,0,0.870617375359188,0.705894656608052,1,17527.3688276259,0.9,1
89,0.827501751088424,1,1,1,0.823571889608274,1.29420094212878,999,0,0.9,1
90,0.74477267098315,1,1,1,0.741193367372489,1.29416565400447,999,0,0.9,1
91,0.608105563945596,0,-1,0,0.611744657698864,0.705926095118912,1,796.390409842616,0.9,1
92,0.789302936340803,1,1,1,0.800008725790576,1.29418586447559,999,0,0.9,1
93,0.637063350383539,1,1,1,0.635293706266793,1.29416789961238,999,0,0.9,1
94,0.815137122699987,1,1,1,0.811793996912684,1.29416757881131,999,0,0.9,1
95,0.816040252478261,1,1,1,0.811744593538606,1.2941541051639,999,0,0.9,1
96,0.732764551098434,1,1,1,0.729452046005463,1.29416822041344,999,0,0.9,1
97,0.667364214670406,0.04,-1,0,0.670574452168012,0.705920641499688,0,1209.04107409342,0.9,1
98,0.668723874637756,1,1,1,0.682353948869377,1.29419452610614,999,0,0.9,1
99,0.753021616964646,0.12,-1,0,0.752949124790348,0.705865463705095,1,4642.54349100929,0.9,1
100,0.850031068565695,1,1,1,0.847035284274625,1.29416404999893,999,0,0.9,1
101,0.7285342345763,0.08,1,0,0.729427023517246,0.705900751829631,1,612.620444784397,0.9,1
102,0.850225408774575,1,1,1,0.858789116885873,1.29416084198738,999,0,0.9,1
103,0.821844078779807,1,1,1,0.823549754330543,1.29415635077157,999,0,0.9,1
104,0.739941857078554,1,1,1,0.741204274610709,1.29417688204398,999,0,0.9,1
105,0.782914924444327,1,1,1,0.788253289174008,1.29416437079999,999,0,0.9,1
106,0.735409005664931,0.12,-1,0,0.74118727215091,0.70593603995394,0,688.127086009217,0.9,1
107,0.878047821644942,1,1,1,0.882393343248168,1.29416244599315,999,0,0.9,1
108,0.606040689966323,1,1,1,0.611735354465964,1.29419516770849,999,0,0.9,1
109,0.875564247617361,0.04,-1,0,0.870600693700453,0.705911659067851,1,1191.24719780211,0.9,1
110,0.609836160451576,1,1,1,0.611780266624237,1.29417816524847,999,0,0.9,1
111,0.86792064902733,1,1,1,0.870632773813441,1.29414800994232,999,0,0.9,1
112,0.746275878116569,1,1,1,0.741225768286768,1.2941541051639,999,0,0.9,1
113,0.787877124033955,1,1,1,1.29416469160105,1.29417014522028,999,0,0.9,1
114,0.892782370231174,0.12,-1,0,0.89415262947864,0.705911338266787,1,2361.67215664341,0.9,1
115,0.883202006394015,1,1,1,0.882386285623397,1.29412394985752,999,0,0.9,1
116,0.622497609532025,0,1,0,0.623579332194595,0.705888561386701,1,1707.66612044918,0.9,1
117,0.883659790819422,1,1,1,0.882375699186014,1.2941662956066,999,0,0.9,1
118,0.849846465175529,0.08,-1,0,0.847074742813675,0.705927378323395,1,1244.56498725135,0.9,1
119,0.7263162618913,1,1,1,0.72940328423374,1.29417656124292,999,0,0.9,1
120,0.856742917922381,1,-1,1,0.858844936282367,1.29416469160105,999,0,0.9,1
121,0.886620914303747,1,1,1,0.882302235727138,1.29416308759528,999,0,0.9,1
122,0.660619792320981,0.04,-1,0,0.658855266078945,0.705885032574315,1,548.177592939282,0.9,1
123,0.617539365575153,1,1,1,0.611779625021882,1.29417976925424,999,0,0.9,1
124,0.712921934927367,0.08,-1,0,0.717696609388668,0.705912621471271,1,541.663405188501,0.9,1
125,0.640675130000729,1,1,1,0.635288573448634,1.29414383952758,999,0,0.9,1
126,0.70353698145908,1,1,1,0.705975177691698,1.29416725801002,999,0,0.9,1
127,0.856683581954069,1,1,1,0.858858089128944,1.29414833074338,999,0,0.9,1
128,0.733981068402882,0.08,-1,0,0.729421890699086,0.705912942272562,0,2759.48159820564,0.9,1
129,0.702699040792779,1,-1,1,0.705892090199086,1.29417207002712,999,0,0.9,1
130,0.866143375578599,1,1,1,0.87061545055235,1.29417495723715,999,0,0.9,1
131,0.662006611207416,1,1,1,0.658864890112909,1.29424521268493,999,0,0.9,1
132,0.699441936695465,0.08,1,0,0.694164242479474,0.705924491113365,1,510.160413396989,0.9,1
133,0.767308383634994,1,1,1,0.764783478485015,1.29416982441899,999,0,0.9,1
134,0.740125519302282,1,1,1,0.741212936241482,1.29415089715235,999,0,0.9,1
135,0.688381869610981,1,1,1,0.69402629799356,1.29414768914103,999,0,0.9,1
136,0.786717694332852,1,1,1,0.788207414612316,1.29419131809482,999,0,0.9,1
137,0.654569784826013,1,1,1,0.658842113232595,1.29417431563479,999,0,0.9,1
138,0.659302394342804,1,1,1,0.658829281187309,1.29414800994232,999,0,0.9,1
139,0.668930391421225,0.04,-1,0,1.16471983154088,0.705908130255466,0,487.824634703657,0.9,1
140,0.745307540482088,1,1,1,0.741199462593841,1.29419452610614,999,0,0.9,1
141,0.74645550121588,0.08,1,0,0.741152946430248,0.705928661527878,1,455.431098974714,0.9,1
142,0.761288185661076,1,1,1,0.764717393452202,1.29416469160105,999,0,0.9,1
143,0.602936460740362,1,1,1,1.14116532935373,1.29416789961238,999,0,0.9,1
144,0.610484436425887,1,1,1,0.611788607453718,1.2941778444474,999,0,0.9,1
145,0.657829227421715,1,-1,1,0.658855907681072,1.29416372919763,999,0,0.9,1
146,0.812297989310619,0.12,-1,0,0.811789184895815,0.705901714232823,0,1801.71602940595,0.9,1
147,0.708465456415488,1,1,1,0.705891769397795,1.29418650607795,999,0,0.9,1
148,0.652539425356018,0.04,1,0,0.647072240564739,0.70591358387469,1,481.021084333634,0.9,1
149,0.661176970805024,1,1,1,0.658856549283428,1.29416757881131,999,0,0.9,1
150,0.887487598320417,1,-1,1,0.882371207970209,1.29416950361792,999,0,0.9,1
151,0.681391684437514,1,1,1,0.682387632988139,1.29415282195919,999,0,0.9,1
152,0.837129657929202,1,1,1,0.835305190947111,1.29416725801025,999,0,0.9,1
153,0.649468820916481,1,1,1,0.647047538877814,1.29416597480554,999,0,0.9,1
154,0.680524699304521,0.04,1,0,0.682359723289892,0.705913263073626,1,731.483037961198,0.9,1
155,0.763933569746661,1,1,1,0.764733433508809,1.29416148358973,999,0,0.9,1
156,0.796190103867399,0.04,1,0,0.799974400069686,0.705908771857821,1,1673.16235488556,0.9,1
157,0.745401561796263,1,1,1,0.74118855535562,1.29416693720896,999,0,0.9,1
158,0.83538421328549,0.08,1,0,0.835281130862541,0.705941172771873,0,4034.28979120986,0.9,1
159,0.859700710005689,1,1,1,0.85885038990159,1.29417142842476,999,0,0.9,1
160,0.694193631408772,1,1,1,0.69412831275281,1.29419837571959,999,0,0.9,1
161,0.609412052624979,1,1,1,0.611767434579178,1.29416372919763,999,0,0.9,1
162,0.646031753264218,0.04,1,0,0.647091167831604,0.705906205448628,1,3772.18853097474,0.9,1
163,0.808137892481579,1,1,1,0.811798167327424,1.29415602997051,999,0,0.9,1
164,0.640687730272561,0.04,-1,0,0.635321936766331,0.705911659068079,1,1517.75602175803,0.9,1
165,0.767464516637347,1,1,1,0.7647337543101,1.29414287712416,999,0,0.9,1
166,0.89771584936694,0.04,-1,0,0.894127927791487,0.705908451056757,1,1157.90794034115,0.9,1
167,0.681412550777317,1,1,1,0.694118367917781,1.29417271162924,999,0,0.9,1
168,0.74957596342551,1,1,1,0.752942708767705,1.29416501240212,999,0,0.9,1
169,0.818076449243565,1,1,1,0.823568360795889,1.29416340839634,999,0,0.9,1
170,0.765982513936448,0,1,0,0.764685954941569,0.705921603903107,0,4796.2935279013,0.9,1
171,0.841785527341244,1,1,1,0.847069289194451,1.29417463643608,999,0,0.9,1
172,0.721203499301922,1,1,1,0.717642714799013,1.29416020038525,999,0,0.9,1
173,0.638588125336482,1,-1,1,0.635317124749463,1.2941788068506,999,0,0.9,1
174,0.616503230874279,1,1,1,0.62355591371238,1.29417078682263,999,0,0.9,1
175,0.738956237832113,0.08,-1,0,0.741201066599615,0.705911338266787,0,532.721394484042,0.9,1
176,0.642373680201767,1,1,1,0.647066466144452,1.29414416032887,999,0,0.9,1
177,0.75081818501596,0.04,1,0,0.75293019752371,0.705903318238597,1,483.383143055335,0.9,1
178,0.731313049439753,1,1,1,0.729392056194229,1.2941755988395,999,0,0.9,1
179,0.742658914289092,1,1,1,0.741212294639126,1.29416148358973,999,0,0.9,1
180,0.864148635894531,0.12,1,0,0.858854560316331,0.705879899755928,1,405.783916057999,0.9,1
181,0.763517164805149,1,1,1,0.764742095139354,1.2941470475389,999,0,0.9,1
182,0.800097315654147,1,1,1,0.800010329796351,1.29416020038525,999,0,0.9,1
183,0.768945267496408,0.04,1,0,0.764710977429786,0.70590845105653,1,346.650964520677,0.9,1
184,0.837110542242901,1,1,1,0.835307757356304,1.29418041085637,999,0,0.9,1
185,0.686170610463596,0.12,1,0,0.682398219425522,0.705915508681528,1,1520.00997049913,0.9,1
186,0.605992055154646,1,1,1,0.611762622562082,1.29417271162924,999,0,0.9,1
187,0.753972835132611,1,1,1,0.764683067731539,1.29416757881131,999,0,0.9,1
188,0.862576700028392,1,1,1,0.858856164322106,1.29414191472074,999,0,0.9,1
189,0.835451860203276,0.12,1,0,0.835297812521276,0.705906847050983,1,522.673903084751,0.9,1
190,0.696297630651687,1,1,1,0.705891127795439,1.29418393966898,999,0,0.9,1
191,0.681173302086246,0.08,1,0,0.682327322375613,0.70590973426124,1,551.083730378195,0.9,1
192,0.619729601161068,1,1,1,0.635272212590962,1.29417912765189,999,0,0.9,1
193,0.742121013876043,1,1,1,0.741154550435795,1.29415218035683,999,0,0.9,1
194,0.655113693553837,0.08,1,0,0.658859757294749,0.705885032574315,1,571.766741648617,0.9,1
195,0.63070742700994,1,1,1,0.635290177454408,1.29417912765189,999,0,0.9,1
196,0.874235100434303,1,1,1,0.870625395387378,1.29416693720896,999,0,0.9,1
197,0.896558322543363,1,1,1,0.894185351193755,1.29420639574801,999,0,0.9,1
198,0.806009048504925,0.04,1,0,0.811770578430014,0.70591069666466,1,626.755263384212,0.9,1
199,0.633552639026989,1,1,1,0.635316483147108,1.29419516770827,999,0,0.9,1
200,0.787183338387567,1,1,1,0.788214793038378,1.29415378436261,999,0,0.9,1
201,0.840951378782413,0.08,1,0,0.835257391578807,0.70591871669285,1,378.457754982492,0.9,1
202,0.83868501485991,1,1,1,0.835296850117857,1.29417046602134,999,0,0.9,1
203,0.861484635387111,1,1,1,0.858840765867853,1.29414768914103,999,0,0.9,1
204,0.609108343488486,0.04,-1,0,0.611827103589121,0.70591358387469,0,274.453707755356,0.9,1
205,0.836400270740074,1,1,1,0.835301982935789,1.29418393966898,999,0,0.9,1
206,0.764369185138605,1,1,1,0.764700711793466,1.29416212519186,999,0,0.9,1
207,0.776866551421575,1,1,1,0.776498494159341,1.29414736833996,999,0,0.9,1
208,0.855987946123349,1,1,1,0.858895302059864,1.29418233566321,999,0,0.9,1
209,0.65599289341488,1,1,1,0.658831847596502,1.294151859556,999,0,0.9,1
210,0.869214877046052,0,1,0,0.870618016961316,0.705884070170669,0,1203.10978199632,0.9,1
211,0.71769350958908,1,1,1,0.71770912063289,1.29416789961238,999,0,0.9,1
212,0.610573794879404,1,1,1,0.611786361845816,1.29416180439102,999,0,0.9,1
213,0.850466967877037,1,1,1,0.847066401984421,1.29415474676603,999,0,0.9,1
214,0.771461750721969,0.04,1,0,0.776517421426206,0.70591358387469,1,1338.78395840361,0.9,1
215,0.849954615395902,1,1,1,0.847089178864508,1.2941804108566,999,0,0.9,1
216,0.748215435819369,1,1,1,0.752983450511238,1.2941184962383,999,0,0.9,1
217,0.732326969549412,0.08,1,0,0.729456216420203,0.705894335806988,1,1466.67004577171,0.9,1
218,0.851573257222326,1,1,1,0.847028547450918,1.29416661640767,999,0,0.9,1
219,0.82324727780889,0.04,1,0,0.823513183001751,0.705913904675981,1,550.269857910735,0.9,1
220,0.630193328451135,1,1,1,0.635333164805843,1.29415346356154,999,0,0.9,1
221,0.799395830032844,0.04,1,0,0.799995893745518,0.705912621471271,0,1526.14112170045,0.9,1
222,0.792871350798554,1,1,1,0.788245269145818,1.29415795477735,999,0,0.9,1
223,0.675234528027551,1,1,1,0.670534993628962,1.29416693720896,999,0,0.9,1
224,0.682458008398987,0.04,-1,0,0.682344645636704,0.705907488653338,0,941.489723456698,0.9,1
225,0.625743299634132,1,1,1,0.623529608019453,1.29417174922582,999,0,0.9,1
226,0.636618331949546,1,1,1,0.635315520743688,1.29415218035706,999,0,0.9,1
227,0.779729835967732,1,1,1,0.776451015592102,1.29417174922582,999,0,0.9,1
228,0.64590764106525,1,1,1,0.647037594042786,1.29420030052643,999,0,0.9,1
229,0.645672426204863,1,1,1,0.64710784949034,1.29415250115812,999,0,0.9,1
230,0.837321973661597,0,1,0,0.835274714839898,0.705911979869143,1,799.798921851561,0.9,1
231,0.651116899000088,1,-1,1,0.647034386031464,1.29415699237393,999,0,0.9,1
232,0.889127631335763,1,1,1,0.894152308677576,1.29416950361792,999,0,0.9,1
233,0.842991827429294,1,1,1,0.847089178864735,1.29415923798183,999,0,0.9,1
234,0.808129985773399,1,1,1,0.81177827765714,1.29412715786862,999,0,0.9,1
235,0.690474414413374,0.08,1,0,0.694138578388902,0.705907167852047,1,680.040331118107,0.9,1
236,0.609857492473077,1,1,1,0.611765188971049,1.29416693720896,999,0,0.9,1
237,0.89284710556657,1,1,1,0.894131456603873,1.2941926012993,999,0,0.9,1
238,0.613705221845926,0.04,-1,0,0.611768076181306,0.705910055062304,0,2025.47930896867,0.9,1
239,0.862823445719723,1,1,1,0.858836916254177,1.29414672673784,999,0,0.9,1
240,0.650396192674647,1,1,1,0.647027649207985,1.29417110762347,999,0,0.9,1
241,0.780828704759949,1,1,1,0.776498494159569,1.29417014522028,999,0,0.9,1
242,0.748254754229208,1,1,1,0.752971901670662,1.29418522287324,999,0,0.9,1
243,0.738211644317214,1,1,1,0.741182780935105,1.29416180439102,999,0,0.9,1
244,0.637355980981223,1,1,1,0.635317445550299,1.29416212519209,999,0,0.9,1
245,0.870029734909663,1,-1,1,0.870604222512611,1.29416789961215,999,0,0.9,1
246,0.867642384471353,0,1,0,0.870621866574766,0.705915187880237,1,1904.50231554269,0.9,1
247,0.718982685072893,1,1,1,0.729418682687992,1.29411721303359,999,0,0.9,1
248,0.820742650644309,0.04,-1,0,0.823509974990429,0.705890486193312,1,260.561094008608,0.9,1
249,0.759875603304926,1,1,1,0.764702957401369,1.29416757881108,999,0,0.9,1
250,0.891779887028129,1,1,1,0.894135306217322,1.29417527803844,999,0,0.9,1
251,0.872398607100877,0.12,-1,0,0.870609355330998,0.705908771857594,1,466.836541558678,0.9,1
252,0.791136065925506,1,1,1,1.31767909364726,1.29416629560683,999,0,0.9,1
253,0.856064725085249,1,1,1,0.858828575424923,1.29419484690743,999,0,0.9,1
254,0.838639262777445,0,-1,0,0.835275356442253,0.705898185420665,1,382.171028064931,0.9,1
255,0.685233434918543,1,1,1,0.682361006494375,1.29416340839634,999,0,0.9,1
256,0.85828592067734,1,1,1,0.858848465094979,1.29413389469255,999,0,0.9,1
257,0.66435946057153,1,1,1,0.658854945277653,1.29416661640789,999,0,0.9,1
258,0.891934745543322,1,1,1,0.89412856939407,1.29419003489056,999,0,0.9,1
259,0.870706307856721,1,1,1,0.870605826518386,1.2941669372085,999,0,0.9,1
260,0.670172369871196,0.08,-1,0,0.670603645070969,0.705880541358056,0,450.039715180083,0.9,1
261,0.669051997374141,1,1,1,0.670632837973699,1.29419709251533,999,0,0.9,1
262,0.800300611104714,1,1,1,0.800002951370516,1.29416822041367,999,0,0.9,1
263,0.633647817163373,0.08,-1,0,0.63526355096019,0.705912621471271,0,1734.96020141192,0.9,1
264,0.707001148799821,1,1,1,0.705891448596958,1.2941470475389,999,0,0.9,1
265,0.714289948123753,1,1,1,0.71761801311186,1.29417367403312,999,0,0.9,1
266,0.80620360606669,1,-1,1,0.811781806469753,1.29418554367476,999,0,0.9,1
267,0.694610958966884,1,1,1,0.694147881621575,1.29413774430623,999,0,0.9,1
268,0.742017364928059,0.08,1,0,0.741185988946654,0.705926736721267,1,609.549736365352,0.9,1
269,0.807171307025547,1,-1,1,0.811795280117167,1.29415442596473,999,0,0.9,1
270,0.769558310851709,1,1,1,0.764682426129184,1.29416982441899,999,0,0.9,1
271,0.626516134222216,0.04,1,0,0.623514851167329,0.705914867079173,1,644.104509308818,0.9,1
272,0.778681681778371,1,1,1,0.776476038080091,1.29413742350471,999,0,0.9,1
273,0.835348762641161,1,1,1,0.83526316599955,1.294144801931,999,0,0.9,1
274,0.811742719949858,1,1,1,0.81178116486717,1.29419292210059,999,0,0.9,1
275,0.6054160887555,1,1,1,0.600001411525227,1.29415891718054,999,0,0.9,1
276,0.780022003688811,1,1,1,0.776497852556986,1.29415570916944,999,0,0.9,1
277,0.71207214162331,0.04,-1,0,0.717680890133579,0.705909092659113,0,635.618998612699,0.9,1
278,0.710873296762554,1,1,1,0.705908771857594,1.29413229068723,999,0,0.9,1
279,0.845941850129122,1,1,1,0.847091745273701,1.29416629560683,999,0,0.9,1
280,0.859722941231608,1,1,1,0.858826009015957,1.2941678996126,999,0,0.9,1
281,0.842684649896294,1,-1,1,0.847073459609419,1.29419516770849,999,0,0.9,1
282,0.870670825922002,1,1,1,0.870602939308355,1.29414223552158,999,0,0.9,1
283,0.798711759562242,0.08,-1,0,0.799999101756839,0.705899468624921,0,891.551573914512,0.9,1
284,0.629592800999276,1,1,1,0.635270287784351,1.29416693720896,999,0,0.9,1
285,0.822107794989942,0.08,1,0,0.823573814414885,0.705911338267015,1,446.656546460417,0.9,1
286,0.871923839225769,1,-1,1,0.870625074586314,1.2941547467658,999,0,0.9,1
287,0.888277637872759,1,-1,1,0.89414460945045,1.29415314276002,999,0,0.9,1
288,0.668692820484796,1,1,1,0.67060204106474,1.29417367403266,999,0,0.9,1
289,0.791922024998635,1,1,1,0.788212868231312,1.29416020038525,999,0,0.9,1
290,0.862345265177328,1,1,1,0.858838841061242,1.29415859637993,999,0,0.9,1
291,0.893554297889979,0.12,1,0,0.905896838055924,0.705913904675526,1,486.097120617615,0.9,1
292,0.886674384007515,1,1,1,0.882339769459577,1.2941711076237,999,0,0.9,1
293,0.654769432124248,1,1,1,0.658802013091645,1.29417431563479,999,0,0.9,1
294,0.822735439790616,0,1,0,0.823510937394076,0.705943418379775,1,1517.46954634882,0.9,1
295,0.62791455205524,1,1,1,0.623543402468385,1.29412747866991,999,0,0.9,1
296,0.776562281310289,0.08,1,0,0.776453582001523,0.705910375863368,1,488.617013495514,0.9,1
297,0.728040720936535,1,1,1,1.27061532223206,1.29420158373068,999,0,0.9,1
298,0.656497501530344,1,-1,1,0.65886168210136,1.29416404999847,999,0,0.9,1
299,0.717540655201428,0.12,1,0,0.717710724638437,0.705917754289203,1,321.657348463305,0.9,1
300,0.604212375004859,1,-1,1,0.60001648917796,1.2941810524585,999,0,0.9,1
301,0.662855729475555,0.12,1,0,0.658859436493913,0.705931227937072,1,537.501010523556,0.9,1
302,0.790605235915063,1,1,1,0.788196828175387,1.2941678996126,999,0,0.9,1
303,0.862270208588849,0.12,1,0,0.858853918713976,0.705910055062304,1,417.200265880183,0.9,1
304,0.841274343697244,1,1,1,0.84704266270046,1.29416404999847,999,0,0.9,1
305,0.601163580191956,0.08,-1,0,0.600030283626893,0.705911338267015,0,382.974314095009,0.9,1
306,0.731456154170694,1,1,1,0.729417399483737,1.2941669372085,999,0,0.9,1
307,0.701868559632871,0.08,-1,0,0.705906526249692,0.705911017465496,1,1523.39506402541,0.9,1
308,0.770228004323067,1,1,1,0.764732150304553,1.29416918281686,999,0,0.9,1
309,0.751329596642844,1,1,1,0.752950728795895,1.2941678996126,999,0,0.9,1
310,0.641337514392851,1,1,1,0.646998456305028,1.29417431563479,999,0,0.9,1
311,0.868961213445308,1,1,1,0.870626036989961,1.29416693720896,999,0,0.9,1
312,0.654226631755022,0.12,1,0,0.658860719698168,0.705900751829631,1,850.61799129744,0.9,1
313,0.816222966098043,1,-1,1,0.811786618486622,1.29416148358951,999,0,0.9,1
314,0.74633115137357,1,1,1,0.741183101736624,1.29416084198738,999,0,0.9,1
315,0.681705015679609,1,1,1,0.682392124203943,1.29416725801002,999,0,0.9,1
316,0.726297539140237,1,1,1,0.729438572358049,1.29416982441899,999,0,0.9,1
317,0.673121529031761,0.04,1,0,0.670611665098932,0.705896581414891,1,466.923157863675,0.9,1
318,0.746547049207995,1,1,1,0.752972864074309,1.2941569923737,999,0,0.9,1
319,0.712207691440703,1,1,1,0.717669020491485,1.29418169406108,999,0,0.9,1
320,0.641578576370847,0.12,1,0,0.647073202968386,0.705911659068079,1,438.585510824396,0.9,1
321,0.803513127463596,1,1,1,0.811787901691332,1.29417399483373,999,0,0.9,1
322,0.680077512115706,0,1,0,0.682360685693311,0.705941172771873,0,420.916105371816,0.9,1
323,0.727441972373015,1,1,1,0.729441459568079,1.29416180439102,999,0,0.9,1
324,0.797924140056121,1,1,1,1.27063649510637,1.2941711076237,999,0,0.9,1
325,0.799321020848127,0.12,1,0,0.800044334716404,0.705874446136932,1,228.07516755438,0.9,1
326,0.641637355479689,1,1,1,0.647039198048788,1.29418137325956,999,0,0.9,1
327,0.672279882135261,0.12,-1,0,0.670618722723702,0.705936681556068,0,455.038438391512,0.9,1
328,0.864046580350757,1,1,1,0.858849748299235,1.29416212519209,999,0,0.9,1
329,0.731509826324612,1,1,1,0.729433439540117,1.29419356370272,999,0,0.9,1
330,0.864646310666365,1,1,1,0.87059588168313,1.29416886201579,999,0,0.9,1
331,0.87248697539479,0.12,1,0,0.870594598478874,0.705911979869143,1,531.101348776247,0.9,1
332,0.69039516581307,1,1,1,0.694113235099849,1.29417848604953,999,0,0.9,1
333,0.655495150784667,1,1,1,0.658799446682224,1.29417014522051,999,0,0.9,1
334,0.673831788814222,1,1,1,0.670609098689965,1.29418522287324,999,0,0.9,1
335,0.865233161020346,1,1,1,0.870601014501517,1.29416629560637,999,0,0.9,1
336,0.737945109702553,0,-1,0,0.752936292745289,0.705909413459722,1,718.507273844807,0.9,1
337,0.814585020898906,1,1,1,0.811745235140734,1.29416693720896,999,0,0.9,1
338,0.885176534847108,1,1,1,0.882380190401818,1.29417688204421,999,0,0.9,1
339,0.663519334447729,0.12,-1,0,0.658793030659581,0.705912300670207,0,441.866985585875,0.9,1
340,0.697773290282147,1,1,1,0.694102648662465,1.2941515387547,999,0,0.9,1
341,0.642684893749067,0,-1,0,0.646969905004426,0.705911338267015,1,433.589033220869,0.9,1
342,0.775654833066956,1,1,1,0.776478604489057,1.2941755988395,999,0,0.9,1
343,0.898047979943046,0.08,-1,0,0.894098734888757,0.7058792581538,0,415.923477381511,0.9,1
344,0.811383666480278,1,-1,1,0.811764483208663,1.29416469160105,999,0,0.9,1
345,0.673261428911439,0.04,-1,0,0.670612627502578,0.705911017465496,1,633.538924084405,0.9,1
346,0.698685367368526,1,1,1,0.694124783940424,1.29418009005531,999,0,0.9,1
347,0.762118973129226,1,1,1,0.764710656628722,1.29419837571959,999,0,0.9,1
348,0.885227149786293,0.12,1,0,0.882361904737536,0.70592577431762,0,2938.34490997688,0.9,1
349,0.89606064085423,1,1,1,0.894119266160942,1.29416533320364,999,0,0.9,1
350,0.84107017795538,1,1,1,0.83530968216337,1.29416661640789,999,0,0.9,1
351,0.767009473219697,1,1,1,0.764732791906681,1.29416661640789,999,0,0.9,1
352,0.732012990595042,1,1,1,0.72941804108541,1.29416565400425,999,0,0.9,1
353,0.675899142372455,0.04,-1,0,0.670586963412006,0.705941172771873,1,349.984088264137,0.9,1
354,0.793600207943346,1,1,1,0.788248156356076,1.29413453629468,999,0,0.9,1
355,0.808266426333486,1,1,1,0.811757104782828,1.2941711076237,999,0,0.9,1
356,0.738792804222779,0.08,1,0,0.741202670605162,0.705911017465496,1,397.385984070297,0.9,1
357,0.727243907420477,1,1,1,0.729440497164433,1.29416982441899,999,0,0.9,1
358,0.689909084195516,0.12,1,0,0.694145315212609,0.705912300670207,1,1833.34734164964,0.9,1
359,0.806790010466987,1,-1,1,0.811755821578117,1.29416757881108,999,0,0.9,1
360,0.72913288334014,0,1,0,0.729413229068541,0.705913263073853,1,249.530347145082,0.9,1
361,0.895332177190664,1,-1,1,0.905890742834345,1.29416854121473,999,0,0.9,1
362,0.749352370820744,0.08,-1,0,0.752982167306527,0.705910696664887,0,1638.82668911401,0.9,1
363,0.675933842443812,1,1,1,0.670602361866258,1.29414768914148,999,0,0.9,1
364,0.628067878783153,1,1,1,0.623504906332528,1.29417367403266,999,0,0.9,1
365,0.736521953133759,0.08,1,0,0.741166740878725,0.705907809454402,1,367.266286752511,0.9,1
366,0.656356853704902,1,-1,1,0.658860078095586,1.29415506756732,999,0,0.9,1
367,0.695209298002117,1,1,1,0.694144352809417,1.29417624044208,999,0,0.9,1
368,0.661245770929265,0.12,1,0,1.14116565015456,0.705915187880237,1,486.830792802266,0.9,1
369,0.866276211091928,1,1,1,0.870612563342092,1.29415378436261,999,0,0.9,1
370,0.879769268586843,1,1,1,1.4235781131506,1.2941611627889,999,0,0.9,1
371,0.898728042417644,0.04,1,0,0.894134023013066,0.705916791886011,0,1231.14202635952,0.9,1
372,0.896349228685948,1,1,1,0.894132098206228,1.29416597480531,999,0,0.9,1
373,0.802999683445238,1,-1,1,0.799950339985116,1.29417848604999,999,0,0.9,1
374,0.737053272507936,1,1,1,0.741221277070508,1.2941711076237,999,0,0.9,1
375,0.894544929445342,0.08,-1,0,0.90589940446489,0.705923528709718,0,1729.49439175454,0.9,1
376,0.879149007357287,1,1,1,0.882359017527051,1.2941656540047,999,0,0.9,1
377,0.846210473287901,0.08,-1,0,0.847092707676893,0.70590973426124,0,572.091071591331,0.9,1
378,0.740814409854165,1,1,1,0.74115936245289,1.29415378436261,999,0,0.9,1
379,0.879357537971052,0.04,-1,0,0.882368641561243,0.705948551198162,0,976.262320367368,0.9,1
380,0.78971090972256,1,1,1,0.788211264225993,1.2941919596974,999,0,0.9,1
381,0.883022353595889,1,1,1,0.882363187942246,1.29417078682263,999,0,0.9,1
382,0.624270910509831,1,1,1,0.623532495229938,1.29414961394787,999,0,0.9,1
383,0.847892387855939,1,1,1,0.847071534802126,1.2941646916006,999,0,0.9,1
384,0.641852025506922,1,1,1,0.647075448576288,1.29417239082841,999,0,0.9,1
385,0.860144792819531,1,1,1,0.87059139046778,1.29415763397628,999,0,0.9,1
386,0.608997368066601,1,-1,1,0.611830632401507,1.29414768914103,999,0,0.9,1
387,0.811332825105757,1,1,1,0.81179143050349,1.2941810524585,999,0,0.9,1
388,0.7308152021401,1,1,1,0.729436968352275,1.2941711076237,999,0,0.9,1
389,0.606800696968102,1,1,1,0.611779625021882,1.29416244599315,999,0,0.9,1
390,0.748219878932259,1,1,1,0.752924743904259,1.29416501240212,999,0,0.9,1
391,0.688274840217242,0.04,1,0,0.694120613525683,0.705924170311846,1,642.830287220022,0.9,1
392,0.749853949522167,1,1,1,0.764685634140733,1.29415987958373,999,0,0.9,1
393,0.641933569813061,1,1,1,0.647065824542096,1.29413646110152,999,0,0.9,1
394,0.712404229139439,0.12,-1,0,0.717693722178865,0.705907809454402,0,335.565039863013,0.9,1
395,0.672137863594845,1,1,1,1.20005960485014,1.294144801931,999,0,0.9,1
396,0.837683908543046,0.04,1,0,0.835241672323264,0.70586899251748,1,435.598852302064,0.9,1
397,0.773726722093588,1,1,1,1.87067062834694,1.2941755988395,999,0,0.9,1
398,0.677368232446802,1,1,1,0.682435432356669,1.29415314276048,999,0,0.9,1
399,0.75883576256136,1,1,1,0.764717072651365,1.29418137325956,999,0,0.9,1
400,0.801756831058491,0,-1,0,0.800010008994832,0.705912621471725,1,706.268069123325,0.9,1
401,0.86902827604162,1,1,1,0.870628924199536,1.29419613011169,999,0,0.9,1
402,0.641962618430567,1,1,1,0.647064541337841,1.29416565400425,999,0,0.9,1
403,0.620111007730129,0.12,1,0,0.623523512797874,0.705911338267015,1,297.856150206826,0.9,1
404,0.807363848250403,1,1,1,0.811789826497716,1.29416469160105,999,0,0.9,1
405,0.691244796206647,0,1,0,0.694149164826285,0.705904922243917,1,478.116230099204,0.9,1
406,0.657811785909393,1,1,1,0.65882831878389,1.29417014522051,999,0,0.9,1
407,0.88784733032996,1,1,1,0.882344902277509,1.29416886201579,999,0,0.9,1
408,0.600400336224531,1,1,1,0.600000128320517,1.29416661640789,999,0,0.9,1
409,0.689891524320954,0.04,1,0,0.694126708747262,0.70589080699483,0,897.013533957761,0.9,1
410,0.886246171158425,1,1,1,0.88240457128768,1.29416276679422,999,0,0.9,1
411,0.84910247992362,1,1,1,1.31764027671034,1.2941678996126,999,0,0.9,1
412,0.766195491399821,1,1,1,0.764735999917775,1.29412202505091,999,0,0.9,1
413,0.724857773746136,1,1,1,0.729422532301669,1.29413902751048,999,0,0.9,1
414,0.604993465814268,1,1,1,0.600006223542096,1.29414031071474,999,0,0.9,1
415,0.754491664351151,1,-1,1,0.752945916779026,1.29415346356109,999,0,0.9,1
416,0.868912900124764,1,1,1,0.87053621267296,1.29415827557841,999,0,0.9,1
417,0.846680074354531,1,1,1,0.847075063614739,1.29419388450424,999,0,0.9,1
418,0.800367698254733,1,-1,1,0.800010008995287,1.2941788068506,999,0,0.9,1
419,0.837750733545073,1,1,1,0.835345291088288,1.29413549869787,999,0,0.9,1
420,0.602401250037868,1,1,1,0.600010714757445,1.29417495723692,999,0,0.9,1
421,0.828319037599397,0.12,-1,0,0.823516711814136,0.705939889567617,0,869.727473023886,0.9,1
422,0.782343337876167,1,1,1,0.788243344338753,1.29416148358996,999,0,0.9,1
423,0.73316179741363,1,1,1,0.729471294073392,1.29414961394787,999,0,0.9,1
424,0.873668688661558,1,1,1,0.870607751325224,1.29418137326002,999,0,0.9,1
425,0.643558446072986,0.08,1,0,0.6470603709231,0.705919679096041,1,425.004074174467,0.9,1
426,0.690047861737991,1,1,1,0.6941100270883,1.29416757881108,999,0,0.9,1
427,0.791534861466224,1,1,1,1.3411912500851,1.29419163889588,999,0,0.9,1
428,0.753824418323146,1,1,1,0.752967731255922,1.29415346356154,999,0,0.9,1
429,0.798861824183251,1,1,1,0.799938791144541,1.29423205983858,999,0,0.9,1
430,0.619192353900001,0.04,1,0,1.17653814517917,0.705910375863368,1,339.874682246773,0.9,1
431,0.869062399173484,1,1,1,0.870595881683585,1.29408802013086,999,0,0.9,1
432,0.652618750653784,1,1,1,0.647090526229476,1.29417271162947,999,0,0.9,1
433,0.820149796504465,0.12,-1,0,0.823512862200459,0.705910055062304,0,432.191944298665,0.9,1
434,0.709207846706813,1,1,1,0.705844290830555,1.29418907248692,999,0,0.9,1
435,0.812798825591772,1,1,1,0.8117741072424,1.29416180439102,999,0,0.9,1
436,0.625940101318264,0,-1,0,0.623569066558503,0.705911659068079,0,1266.04839734182,0.9,1
437,0.740955449156276,1,-1,1,0.741203633008354,1.29417046602157,999,0,0.9,1
438,0.771962718589365,0.12,-1,0,0.776455827609425,0.705895939812763,1,1013.906408195,0.9,1
439,0.876600478326733,1,-1,1,0.882359979930243,1.29419356370272,999,0,0.9,1
440,0.666515687439977,1,1,1,0.670582472196202,1.29416886201579,999,0,0.9,1
441,0.64159445247254,1,1,1,0.647063899735713,1.29416244599315,999,0,0.9,1
442,0.67106435092387,1,-1,1,0.670594021036777,1.29412138344878,999,0,0.9,1
443,0.712081322179523,0.08,1,0,0.71768345654209,0.705911979868688,1,377.189628114593,0.9,1
444,0.813837523924323,1,1,1,0.811800733736163,1.29417110762324,999,0,0.9,1
445,0.720699084341075,1,1,1,1.23530570422918,1.29416020038525,999,0,0.9,1
446,0.773554818278262,1,1,1,0.776461922831004,1.29416340839634,999,0,0.9,1
447,0.736306092427001,1,1,1,0.741109317476003,1.29416789961215,999,0,0.9,1
448,0.881939940143726,1,1,1,0.882367999959115,1.29417848604953,999,0,0.9,1
449,0.770032769511623,1,1,1,0.764697503782372,1.2941733532316,999,0,0.9,1
450,0.793274170885341,1,1,1,0.78822377546976,1.29418041085637,999,0,0.9,1
451,0.693119451477902,1,1,1,0.694103931866721,1.29415185955577,999,0,0.9,1
452,0.864222548230562,1,1,1,0.858844294680239,1.29417014522051,999,0,0.9,1
453,0.78068632290808,0.08,1,0,0.776495927750148,0.705916150283883,1,439.558179851247,0.9,1
454,0.82384702883248,1,1,1,0.823531468665806,1.29421217016807,999,0,0.9,1
455,0.797044334719438,1,1,1,0.799968625649399,1.29411817543723,999,0,0.9,1
456,0.782493223347503,0.08,1,0,0.788235003509726,0.705920962300752,1,710.558142638547,0.9,1
457,0.666286922440624,1,1,1,0.670646632422176,1.29417624044163,999,0,0.9,1
458,0.711650329654008,1,-1,1,0.705902355834951,1.29416918281686,999,0,0.9,1
459,0.773631205787057,0.12,-1,0,0.776480208494831,0.705878295750608,0,617.889282547367,0.9,1
460,0.609790944574388,1,1,1,0.611779304220818,1.29417880685105,999,0,0.9,1
461,0.732128965105242,1,1,1,0.729444988380692,1.29416597480576,999,0,0.9,1
462,0.876698719403228,0,-1,0,0.882323087801069,0.705917433488139,1,1393.35768427782,0.9,1
463,0.607493420833803,1,1,1,0.611797269084491,1.29416052118631,999,0,0.9,1
464,0.830618858039171,1,1,1,0.847112918148468,1.29417495723692,999,0,0.9,1
465,0.815347553526224,0.08,1,0,0.811765766413373,0.705900110227049,1,607.000650584723,0.9,1
466,0.869247575306352,1,1,1,0.870595560882521,1.2941634083968,999,0,0.9,1
467,0.842420931326477,1,1,1,0.847060627564133,1.29415602997051,999,0,0.9,1
468,0.844169130051673,0.12,1,0,1.36470950174453,0.705908771858049,1,711.441628950979,0.9,1
469,0.704310624915659,1,1,1,0.705829213177367,1.29415378436261,999,0,0.9,1
470,0.857550358968797,0.04,-1,0,0.858844936282367,0.705916150283429,0,1249.8036697084,0.9,1
471,0.845520106511295,1,1,1,0.847039454689366,1.29418875168585,999,0,0.9,1
472,0.622137182596129,1,1,1,0.62352319199681,1.29416565400425,999,0,0.9,1
473,0.641130182187514,1,1,1,0.647075448576288,1.29416918281686,999,0,0.9,1
474,0.646366385813429,1,1,1,0.647059087718389,1.29419131809482,999,0,0.9,1
475,0.783550835943658,0.12,-1,0,0.788223133867632,0.705904280642244,0,449.288719733886,0.9,1
476,0.751804776245372,1,1,1,0.75293019752371,1.29417463643631,999,0,0.9,1
477,0.660717961777226,0,-1,0,0.658847246050755,0.705887598983281,1,1631.01197358128,0.9,1
478,0.682499965073747,1,1,1,0.682365818511244,1.29417367403266,999,0,0.9,1
479,0.889761145828346,0.08,1,0,0.894151025473093,0.705911979869143,1,424.124758276321,0.9,1
480,0.79069629610262,1,-1,1,0.788239173924012,1.29419709251533,999,0,0.9,1
481,0.786008342513634,1,1,1,0.788208056214444,1.29417399483373,999,0,0.9,1
482,0.738176649369093,1,1,1,0.741198500190421,1.29416084198738,999,0,0.9,1
483,0.703078792648455,1,1,1,0.705900751829631,1.29415314276048,999,0,0.9,1
484,0.64794063031358,1,1,1,0.64706903255319,1.29412587466413,999,0,0.9,1
485,0.80414736592109,0.08,-1,0,1.29415891718054,0.705901393431759,0,4309.26255519353,0.9,1
486,0.649275288190409,1,1,1,0.6470866766158,1.29415218035683,999,0,0.9,1
487,0.642297926237079,0.12,-1,0,0.647080902195739,0.705954646419286,0,579.229217540615,0.9,1
488,0.682470474889382,1,-1,1,0.682363252101823,1.29416757881108,999,0,0.9,1
489,0.700429717008541,1,1,1,1.2117742997234,1.29414319792568,999,0,0.9,1
490,0.849158059752012,1,-1,1,0.847069289194678,1.29414897234574,999,0,0.9,1
491,0.872023559825405,1,1,1,0.870549686320828,1.29419388450378,999,0,0.9,1
492,0.636080080062804,1,1,1,0.635270608585415,1.29417014522051,999,0,0.9,1
493,0.673169909903963,0.04,1,0,0.670612306701514,0.705926415920203,1,523.00689465801,0.9,1
494,0.660715980140766,1,1,1,0.658854945277653,1.29415859637948,999,0,0.9,1
495,0.80742547429685,1,1,1,0.811781806469753,1.294144801931,999,0,0.9,1
496,0.707200328360977,0.12,1,0,0.705922566306526,0.705907167851819,0,3195.4400685745,0.9,1
497,0.65788414567075,1,1,1,0.658849170857138,1.29416886201579,999,0,0.9,1
498,0.64460324495589,1,1,1,0.647012571554569,1.29416950361792,999,0,0.9,1
499,0.69111139747097,1,1,1,0.694120613525683,1.29411464662462,999,0,0.9,1
500,0.857544305208099,0,1,0,0.858844294680239,0.705911017465496,1,2533.59910637619,0.9,1
501,0.813563886691078,1,1,1,1.28238615730288,1.29416757881108,999,0,0.9,1
502,0.780297033838142,1,1,1,0.776503626977501,1.29418458127111,999,0,0.9,1
503,0.762335375604862,0.08,-1,0,0.764730225497715,0.705910696664432,0,525.087610788887,0.9,1
504,0.790799896975743,1,1,1,0.788263875611392,1.29415955878267,999,0,0.9,1
505,0.737504669217827,1,1,1,0.741151021623409,1.29411079701094,999,0,0.9,1
506,0.769084109915749,0.04,-1,0,0.764695899776598,0.705943739180839,1,732.325461729033,0.9,1
507,0.716624456064415,1,1,1,0.717637581980853,1.29416661640789,999,0,0.9,1
508,0.643596741949443,0,1,0,0.64704721807675,0.705910375863368,1,798.528549375533,0.9,1
509,0.872763827158705,1,1,1,0.870616412955769,1.29415570916899,999,0,0.9,1
510,0.821006218575268,0.04,-1,0,0.823517353416264,0.705923849510782,1,1212.78835209614,0.9,1
511,0.874784464080246,1,1,1,0.870575992013528,1.29418041085637,999,0,0.9,1
512,0.872068053483482,1,-1,1,0.870572142399851,1.29417399483373,999,0,0.9,1
513,0.876947234069095,0.12,-1,0,0.8823622255386,0.705921924704398,0,404.76761807713,0.9,1
514,0.712558455994017,1,1,1,0.717653301236169,1.29415474676625,999,0,0.9,1
515,0.665236035316922,1,1,1,0.670579584986172,1.29419163889588,999,0,0.9,1
516,0.613312100119473,0.12,-1,0,0.611745940903347,0.705914546278564,0,395.577307297572,0.9,1
517,0.661619875236446,1,1,1,0.658851095663977,1.29417976925424,999,0,0.9,1
518,0.792245889230561,1,1,1,0.788243344339207,1.29416629560683,999,0,0.9,1
519,0.887417382504578,1,1,1,0.88235195990228,1.29416789961215,999,0,0.9,1
520,0.642704339830334,0.04,1,0,0.647067749348935,0.705894977409116,1,423.685902330362,0.9,1
521,0.682342279758964,1,1,1,0.682340796023254,1.29415506756686,999,0,0.9,1
522,0.871941774145905,0.08,-1,0,0.870549044718246,0.70590973426124,0,847.694209796373,0.9,1
523,0.868349076843455,1,1,1,0.870666457931748,1.29416244599315,999,0,0.9,1
524,0.794249388817235,1,1,1,0.799977287279944,1.2941832980664,999,0,0.9,1
525,0.802407755981586,0,-1,0,0.800021557835862,0.705913583874462,0,3017.14874521849,0.9,1
526,0.892399934253155,1,1,1,0.894159045501056,1.29416822041321,999,0,0.9,1
527,0.808798417288828,0.04,-1,0,0.811768332822339,0.705893373403342,0,1857.34807820882,0.9,1
528,0.628375945659644,1,-1,1,0.635316162345589,1.29419388450424,999,0,0.9,1
529,0.630630235138836,1,1,1,0.635314558340269,1.29417335323114,999,0,0.9,1
530,0.603147515725632,1,1,1,0.600032208433277,1.29417078682263,999,0,0.9,1
531,0.720564880820049,1,1,1,1.20004324399224,1.29415891718099,999,0,0.9,1
532,0.751341719418123,1,1,1,0.752942708767932,1.2941624459927,999,0,0.9,1
533,0.611436255290585,1,-1,1,0.611791494663521,1.29421922779284,999,0,0.9,1
534,0.778790625670379,1,1,1,0.776494644545892,1.2940989273693,999,0,0.9,1
535,0.811879338466362,0.04,-1,0,0.811738819118091,0.705872200529029,1,2146.39663338448,0.9,1
536,0.731262195273868,1,1,1,0.729444346778564,1.29417752364634,999,0,0.9,1
537,0.797433909179027,1,1,1,0.800009046592095,1.29416854121473,999,0,0.9,1
538,0.737814485561123,0.08,1,0,0.741235071519441,0.705893373403342,1,517.720412832659,0.9,1
539,0.857967833295344,1,1,1,0.858826971419148,1.29416822041367,999,0,0.9,1
540,0.705980641994673,1,1,1,0.705914225477045,1.29415089715258,999,0,0.9,1
541,0.840723131317742,0.04,-1,0,0.835279206055475,0.705911338267015,1,854.437128752579,0.9,1
542,0.773419500594,1,1,1,0.776453261200004,1.29416565400425,999,0,0.9,1
543,0.68749565096091,1,1,1,1.20004901841276,1.29416982441899,999,0,0.9,1
544,0.682861241866803,1,1,1,0.682327322375841,1.29415859637993,999,0,0.9,1
545,0.807236774567898,1,1,1,0.811777636055012,1.29416757881108,999,0,0.9,1
546,0.83633349715428,0.12,1,0,0.835259957988001,0.705895619011244,1,10704.7628702207,0.9,1
547,0.859981638982045,1,1,1,0.858809968959577,1.29416661640789,999,0,0.9,1
548,0.726703795588805,0.12,1,0,0.729414512273252,0.705909413460176,1,362.381127141362,0.9,1
549,0.777002769985879,1,-1,1,0.776468018052128,1.29416308759528,999,0,0.9,1
550,0.714480932662384,1,1,1,0.717688589360478,1.2941832980664,999,0,0.9,1
551,0.889458455995369,0.12,1,0,1.42357650914482,0.705918395891786,1,353.908448490074,0.9,1
552,0.620220409774029,1,1,1,0.623533457632675,1.29417239082795,999,0,0.9,1
553,0.629957576867288,0,1,0,0.635348242458804,0.705896260613827,1,370.691801221255,0.9,1
554,0.799164784976445,1,1,1,0.799986911313681,1.29416340839634,999,0,0.9,1
555,0.825301161986253,1,1,1,0.823527939853648,1.29421666138433,999,0,0.9,1
556,0.612657738608995,1,1,1,0.611769680187081,1.29419324290166,999,0,0.9,1
557,0.713129638563012,1,1,1,0.717673832508353,1.29419805491852,999,0,0.9,1
558,0.735651501475836,1,1,1,0.741203953809872,1.29414319792522,999,0,0.9,1
559,0.792993661899128,0.12,-1,0,1.28238776130866,0.705917112687075,0,577.272972248011,0.9,1
560,0.742651383236724,1,1,1,0.741192404968842,1.29416822041321,999,0,0.9,1
561,0.612683601417516,1,1,1,0.61176550977234,1.29416822041321,999,0,0.9,1
562,0.653669920641122,0.04,-1,0,0.658832809999694,0.705911659068079,1,2868.15009386646,0.9,1
563,0.862433003441187,1,1,1,0.858837878657596,1.29418586447582,999,0,0.9,1
564,0.72819869506515,1,1,1,0.729413229068541,1.29411240101672,999,0,0.9,1
565,0.778915548978036,1,1,1,0.776484058108508,1.29416693720896,999,0,0.9,1
566,0.685446373272522,0.12,1,0,0.682390199397105,0.705942776777647,1,696.11246774366,0.9,1
567,0.838112023726435,1,-1,1,0.835313852577656,1.29419420530485,999,0,0.9,1
568,0.747704427066004,1,1,1,0.752960673631151,1.29417752364634,999,0,0.9,1
569,0.843153049085316,0.04,1,0,1.37653872262126,0.70591999989756,1,872.053922820214,0.9,1
570,0.810646663007204,1,1,1,0.811795600918231,1.2941678996126,999,0,0.9,1
571,0.878645256350879,1,1,1,0.8823622255386,1.29415506756686,999,0,0.9,1
572,0.845484060622257,0.08,-1,0,0.847066722785257,0.705903318238597,0,615.658110686581,0.9,1
573,0.741533759014392,1,1,1,0.741198179389812,1.29416725801048,999,0,0.9,1
574,0.878679117850536,0.08,-1,0,0.882398476066101,0.705914867079628,1,1468.95896183605,0.9,1
575,0.850869181552431,1,1,1,0.847070893199998,1.29411400502249,999,0,0.9,1
576,0.754860148998559,0.08,1,0,0.752965806449083,0.705913583874462,1,775.439208827265,0.9,1
577,0.720635620496718,1,1,1,0.717661962866714,1.29413261148784,999,0,0.9,1
578,0.77969929738784,1,1,1,0.77647924609164,1.29413293228936,999,0,0.9,1
579,0.684266395973249,1,-1,1,0.68236389370486,1.2941547467658,999,0,0.9,1
580,0.668656019574361,0.04,1,0,0.670592417031003,0.705913904675981,0,581.066124811969,0.9,1
